@ HyperIMU - ianovir
@ Date:Thu Jun 05 19:03:08 GMT+05:30 2025, Sampling Rate:150ms

bmi160_accelerometer.x,bmi160_accelerometer.y,bmi160_accelerometer.z,bmi160_gyroscope.x,bmi160_gyroscope.y,bmi160_gyroscope.z
-0.6063938,1.3544292,10.058651,0.02363205,-0.066223145,-0.085315704
-0.32131386,1.41432,9.594198,-0.015888214,0.029640198,0.04793167
-0.39318275,1.663166,9.498373,-0.039253235,-0.055541992,-0.0032043457
-0.46505165,1.4718151,9.345053,-0.01909256,-0.09492874,0.028705597
-1.1975155,2.1255226,9.974804,0.1130867,-0.3782463,-0.5145645
0.8492508,1.2226696,10.28384,0.04699707,-0.9621048,0.25875092
1.5652447,0.28178596,12.378519,1.2135124,0.12029648,0.2854538
2.07761,0.7941513,10.781832,-0.085048676,0.8872032,-0.24820328
-3.8527718,6.3439274,10.120937,-1.4869499,-1.5319443,0.33124924
6.142994,2.8004913,9.610968,-0.87545395,-1.1623764,-0.66049576
3.355978,3.688671,0.6758671,1.3541031,-5.8367157,-1.7908287
7.8645535,-4.997284,-2.032093,0.16529083,-3.067093,2.8207588
17.630339,-6.630205,-5.5994854,1.08881,0.8649063,3.805027
13.213097,-3.3931103,-2.822052,-1.0342026,1.0374069,2.6172829
9.811003,-2.7828236,-1.9075203,-1.9204712,-0.054473877,-0.6711769
9.432493,-6.7116566,-1.6155529,1.3476944,-0.8831978,-3.4407997
10.490763,-6.728426,-4.5052814,-1.1279297,-0.14072418,-1.0419464
7.627386,-5.387472,-1.5868053,0.49440384,0.19159317,0.7082939
5.353035,-5.002075,-3.152649,-0.4227066,0.6231117,1.4561081
8.745546,-4.2288857,-2.6594486,1.5192604,0.16822815,2.056923
10.91449,-4.520853,-5.616255,-0.5570221,0.435524,0.09159088
13.658384,-4.760416,-2.802887,-0.4791832,-0.9259224,-0.86076736
5.288353,-4.348667,-5.6497936,1.4116478,-2.516346,-3.235321
6.071125,-5.667761,0.4770298,-2.7450562,1.1152458,-1.2005615
6.6290073,-5.694113,1.4945736,0.741539,0.33966064,1.5168571
15.669516,-0.64951515,-8.862633,0.1695633,-2.6068687,1.8055153
6.605051,-3.029274,-1.5484753,1.2060356,1.1343384,-0.25568008
9.657682,-1.93507,-4.6657887,0.6201744,-0.4624939,0.922451
11.000732,-4.2504463,-6.372675,0.056610107,0.19266129,-0.45915604
9.940067,-7.0515366,-1.3448467,-0.11175156,-0.700016,-1.0866737
8.47484,-1.7149715,-6.990448,-0.579319,0.14259338,-1.386013
6.636194,-4.456171,-1.8356514,0.13431549,-0.11949539,-0.7276535
8.372128,-5.7803555,-2.0704231,0.11522293,0.10427475,1.7214012
11.503515,-5.184143,-2.242609,0.7969475,-0.30160904,2.956009
6.952118,-4.2672157,-4.945778,-0.5452728,1.149292,0.051136017
8.462862,-4.128269,-1.7661781,-0.25447845,-0.3058815,0.69454193
10.955215,-4.379511,-4.591524,-0.19479752,0.11709213,-0.3356552
11.707144,-5.504858,-1.8715858,-0.2863884,-0.057678223,-0.7478142
8.269115,-4.9421844,-4.4405994,1.4681244,-1.3966942,-2.605667
5.3671093,-3.922245,-1.0600662,-0.24700165,0.3503418,-1.1196518
7.531561,-6.1729393,-2.326456,-0.273571,-0.4060173,0.8723831
9.207603,-7.339012,-3.226614,0.92912674,0.04245758,3.169098
7.146164,-4.0803566,-4.3639393,-0.27677536,0.7273865,0.18638611
8.668886,-3.6901684,-2.2545872,0.5774498,0.21722794,0.73179245
12.571367,-4.6981297,-3.621893,-0.59000015,0.43979645,-0.36649704
9.607374,-6.9748764,0.5177555,0.384655,-0.27183533,-1.6096497
8.858141,-3.6039257,-3.8994865,2.090168,-1.3934898,-1.5702629
6.8206577,-5.504858,-1.524519,-0.9223175,0.9276581,-1.2762642
10.06464,-7.166527,-4.248949,-0.74661255,-0.26542664,1.608448
11.936825,-2.754076,-2.3815556,-0.4430008,0.25341034,1.4177895
8.235577,-3.1945724,0.61837196,-0.56663513,0.76049805,0.64020157
9.710386,-4.1857643,-2.8723602,0.23124695,0.22563934,0.31736374
11.779013,-5.7923336,-4.019268,-0.9937477,-0.14606476,0.21615982
12.293774,-4.051609,-3.9234428,1.2496948,-1.658783,-1.8557167
7.191681,-3.994114,-3.9665642,0.6552887,-0.14286041,-2.3191452
7.8046627,-6.6877003,-3.2625484,-0.92552185,-0.57424545,-0.5976105
7.2779236,-7.1569443,-0.81331635,0.15995026,0.79027176,2.1677399
7.9720573,-5.4497585,-5.022438,1.0207176,0.671978,1.4966965
9.492384,-3.8934975,-2.6330967,0.29626846,0.565567,1.2335396
11.805365,-5.823477,-4.0935326,-0.7008171,0.012683868,-0.07463455
13.340065,-5.313507,-2.489359,-0.011615753,-0.27397156,-1.3976288
6.971283,-5.5096493,-3.79887,-0.03391266,-0.8033562,-2.9646873
4.6681843,-4.578348,-1.3472424,-0.064888,-0.22911072,-1.0642433
8.587435,-8.337391,-2.1926003,0.2845192,-0.25047302,2.2593307
12.8277,-5.2272644,-5.544386,1.4776039,0.24059296,2.2817612
8.218807,-4.978119,-1.5317059,-1.0906792,1.0619736,1.1706543
8.980019,-4.18816,-5.4964733,0.5754471,-0.066223145,0.12243271
11.194778,-7.2264175,-4.483721,-1.1610413,0.23845673,-0.6339264
10.397333,-7.654936,-5.0392075,-0.15541077,-0.5434036,-2.052784
5.972904,-5.375494,-1.7494087,-0.15327454,0.2640915,-2.1849632
4.804735,-6.141796,-3.698553,-0.6219101,-0.36449432,0.58158875
10.545862,-10.405718,-5.4701214,0.199337,0.39186478,3.1254387
10.076618,-5.1242523,-5.915409,0.7394028,0.8701134,0.58052063
6.463709,-4.94458,-1.3400555,-1.7128563,1.1332703,-0.02670288
8.824602,-5.2799683,-6.535578,-0.030708313,-0.17904282,-0.41015625
10.969589,-7.137779,-4.5244465,0.026836395,0.21829605,-0.9129715
8.767107,-6.6877003,-3.401495,-0.107479095,-0.77251434,-2.0933723
5.08712,-4.5424137,-0.35365486,-0.3300476,0.2512741,-1.0152435
6.4349613,-7.0251846,-1.5149364,0.7639694,-0.5114937,0.963974
9.157295,-7.4752636,-4.6801624,1.0569,0.010547638,2.0132637
8.043926,-5.4880886,-5.211693,0.76503754,-0.34740448,-0.62324524
7.979244,-3.0436478,-1.1918259,0.11522293,0.18732071,-0.81710815
10.093388,-5.2775726,-3.9665642,-0.2938652,-0.5359268,-0.6403351
10.423685,-5.4761105,-1.2538128,0.8566284,-0.55194855,-1.1143112
6.60026,-3.3431015,-1.8931465,0.9332657,-0.37303925,-0.6414032
8.247555,-5.629431,-3.016098,0.4560852,-0.44326782,0.029773712
9.528318,-9.65888,-1.1870346,-0.51856995,-0.0097465515,1.872673
6.2819405,-4.793955,-9.559462,0.5040169,0.09679794,-0.755291
6.7823277,-4.372324,1.2050018,-0.5016136,0.7061577,-0.029907227
10.251499,-4.9948883,-5.5228252,-0.7572937,0.19052505,0.3642273
11.10614,-4.8011417,-3.0304718,0.44540405,-0.37611008,-0.027770996
9.035118,-4.135456,-4.332796,0.32297134,-1.0590363,-1.112175
6.6481724,-4.2480507,-0.945076,-0.13404846,-0.028839111,-1.3412857
8.122982,-7.583067,-3.5452328,-1.0534286,-0.67344666,0.5922699
8.094234,-5.962124,-2.7121525,1.8813515,1.2089729,2.2124672
6.9856567,-5.5743313,-4.0096855,-1.3878822,0.6199074,0.93740463
9.301033,-4.772394,-4.5819416,0.95249176,-0.25154114,0.8691788
10.948029,-4.937393,-2.7097569,-0.56877136,0.2938652,-0.035247803
13.608076,-4.3342934,-5.865101,0.3272438,-0.12163162,-1.7448997
8.281094,-5.6965084,-3.2029572,-0.21722794,-0.4199028,-2.5343704
4.7184925,-4.2672157,-1.3376598,-1.0427475,0.06702423,-1.4040375
6.5882816,-7.4680767,0.47942543,-0.37797928,-0.71603775,1.5818787
11.166031,-10.934853,-6.0807076,2.0465088,0.4855919,4.5934296
8.613787,-5.4569454,-7.040756,-1.158905,1.056633,1.2932205
9.042305,-4.2672157,-0.9714279,0.546608,0.07436752,0.4579544
11.967968,-6.1657524,-4.8691177,-0.9297943,0.25661469,-1.3295364
16.311245,-8.792261,-6.102268,1.1187172,-1.0483551,-3.4696388
6.7967014,-7.1880875,-2.0632362,-1.3388824,0.5985451,-3.437729
2.3695774,-4.468149,-2.1590614,0.093860626,-0.56049347,-1.1228561
8.953667,-10.705172,-2.2713566,-0.76890945,0.0935936,4.712658
17.678251,-6.450533,-8.714403,2.0944405,-0.050201416,2.8239632
7.0383606,-3.1921768,-4.129467,-0.21615982,1.4006996,0.7647705
11.527472,-6.4193897,-3.3224392,-0.8414078,-0.60094833,0.53152084
11.553823,-7.327034,-3.107132,-0.39506912,0.24913788,-1.3199234
9.966419,-7.927738,-5.355131,0.1918602,-1.6395569,-3.8584328
5.08712,-5.428198,-1.6610699,-0.09786606,0.12136459,-2.900734
6.2100716,-6.8098774,-0.58603096,-2.0877647,-0.5061531,1.1749268
10.8093815,-6.907799,-5.369505,2.965889,0.49627304,3.280983
7.538748,-5.8450375,-5.151802,-0.19693375,1.0480881,2.1166039
10.490763,-5.4617367,-2.70257,0.7554245,0.21402359,1.9567871
10.759073,-5.164978,-3.653036,-0.7359314,0.30241013,-0.18972397
13.564955,-5.1242523,-4.7277756,0.5275154,-1.0025597,-1.4414215
11.685583,-9.9772,-4.3639393,-2.4159431,-0.2845192,-4.215317
2.359995,-5.512045,-1.3975506,1.3498306,0.10641098,-2.3191452
4.16061,-8.876108,1.6982021,0.89387894,0.6124306,3.466301
13.895252,-8.46406,-8.561083,2.4513245,0.38438797,3.1051445
7.3306274,-4.94458,-2.142292,-0.37797928,1.8842888,1.4124489
10.57461,-4.958954,-5.106285,0.3272438,-0.3782463,0.6571579
10.636896,-8.299061,-3.7198143,-1.3303375,0.26302338,-1.6565132
9.72476,-7.4297466,-5.778858,0.384655,-2.1710777,-2.308464
6.0471687,-4.6262608,-2.0105324,-0.32470703,0.43766022,-2.1817589
7.7016506,-6.4984455,-3.7773094,-1.1193848,-0.64888,0.27584076
8.707216,-6.5367756,-0.6602955,0.12590408,-0.35060883,2.6322365
7.2348022,-4.5232487,-6.521204,0.27290344,0.4004097,0.750885
7.6705074,-3.1873856,-4.469347,0.9972191,0.34606934,0.8702469
10.761469,-6.225643,-5.609068,-0.6379318,-0.027770996,0.22256851
11.424459,-4.0348396,-5.9896736,0.90776443,-0.3771782,-1.2826729
7.3545837,-4.4585667,-4.2776966,0.35167694,-1.5256691,-2.2455788
7.7423763,-5.2320557,-1.4478588,-0.5932045,-0.04699707,-0.9555626
7.6776943,-8.574259,-3.614706,-0.36956787,-0.07476807,1.0555649
9.092613,-4.3890934,-7.68009,1.8995094,-0.072631836,1.13554
7.309067,-4.3606453,-2.436655,-0.43766022,1.5179253,1.3411522
9.87299,-5.4569454,-6.959305,0.48265457,-0.14392853,0.2576828
10.562632,-7.6836834,-5.3024273,-0.60709,0.24166107,-0.16942978
9.382185,-5.897442,-3.5979366,0.056610107,-1.1985588,-1.774807
6.779932,-5.0332184,-2.3863468,-1.2344742,0.82538605,-1.4392853
7.275528,-7.9636726,-2.0440712,-0.35247803,-0.9897423,0.12670517
6.2555885,-9.452856,0.17308426,5.2690125,-2.3244858,0.56770325
4.6681843,-8.12418,-4.373522,-4.330139,3.3852577,0.6721115
7.8238277,-5.0188446,-1.6778393,1.7227364,0.41749954,0.93206406
11.496328,-6.409807,-5.9585304,-1.0119057,0.15647888,1.0129738
11.721518,-3.426649,-3.8922997,1.1197853,-0.45181274,-0.3345871
9.956837,-5.993267,-4.071972,-0.8839989,-1.3647842,-2.275486
6.932953,-5.672552,-1.323286,-0.63259125,-0.27397156,-2.0176697
7.222824,-7.3054733,-1.9626198,-0.46957016,-0.06729126,0.59654236
10.134113,-5.576727,-3.363165,1.3072395,0.671978,2.3232841
8.175686,-5.2009125,-3.4182644,-0.48452377,0.8861351,2.3712158
9.042305,-3.8243237,-6.4972477,0.82992554,0.025367737,0.81697464
12.320126,-6.168148,-4.797249,-1.4529037,0.30988693,-0.28024673
11.529867,-5.002075,-4.495699,1.2496948,-0.9822655,-2.1199417
9.588209,-6.3717766,-3.226614,-0.84781647,-1.0601044,-3.0999374
4.893074,-5.835455,-1.158287,-0.25981903,-0.50188065,-1.7705345
9.427702,-9.266296,-4.72538,0.8065605,-0.3058815,2.5811005
10.411707,-5.047592,-8.860237,0.7703781,1.1152458,1.450901
6.8014927,-4.8418674,-1.7134743,-1.1865425,1.3964272,1.811924
10.002354,-5.112274,-4.950569,0.24299622,-0.016155243,1.1898804
12.873217,-6.038784,-4.0671806,0.45928955,0.129776,-0.7499504
11.455603,-9.247131,-1.8691902,0.44754028,-1.4925575,-3.8477516
6.3586006,-5.401846,-2.3001041,0.04699707,-0.12590408,-2.3979187
6.341831,-7.1353836,-2.776535,-0.64754486,-0.597744,0.28759003
10.074223,-6.1921043,-3.2146358,0.9141731,0.648613,2.8932571
7.7878933,-4.3342934,-5.6066723,-0.7082939,0.22043228,0.8148384
7.536352,-3.90308,-0.48062325,1.098423,0.03391266,0.84688187
10.095783,-5.2009125,-11.046249,0.5359268,-0.18331528,0.17463684
6.7511845,-10.370083,-0.89237213,-0.3077507,0.0935936,0.22470474
3.4541988,-6.27116,-4.6538105,1.1283302,-0.98760605,-0.069293976
6.482874,-6.069927,-2.3959293,1.4606476,-0.903492,0.25981903
7.363867,-10.247906,-0.7294693,-1.2143135,0.58145523,0.6476784
2.7576694,-7.295891,-6.377466,-0.11175156,1.0534286,-1.2294006
3.8563652,-7.4824505,0.5752506,-0.82645416,-0.7042885,0.24499893
7.6297817,-5.718069,-3.3128567,0.49013138,1.2227249,-0.03845215
9.21479,-10.370083,-3.7557487,-0.7870674,-0.5902672,-0.47197342
6.7967014,-7.5854626,-3.980938,0.6201744,-0.26542664,-1.1994934
3.0280762,-5.6462,-1.0576706,0.13324738,-0.33031464,-0.1779747
6.279545,-9.649298,-3.851574,-0.3578186,-0.75756073,0.11068344
6.7583714,-10.975578,-0.1599083,-0.6624985,0.53352356,1.0022926
1.0145493,-7.087471,-5.4509563,-1.3846779,1.598835,0.28438568
4.663393,-5.6462,-2.783722,0.06942749,0.7220459,0.5698395
7.557913,-9.687628,-5.297636,-0.2437973,0.35995483,0.2640915
9.140526,-8.729975,-0.9115372,0.4496765,0.059547424,0.24499893
5.106285,-6.6086445,-2.9490204,0.33245087,-2.5876427,-1.7033768
4.6993275,-6.8290424,-0.23387337,0.6435394,-0.5934715,-0.8980179
8.704821,-9.7283535,-2.216257,-1.3080406,-0.2622223,-0.6264496
7.490835,-6.098675,-2.958603,0.9482193,1.0619736,0.6934738
5.745619,-4.5496006,-2.2090702,-1.4816093,0.9212494,0.68279266
9.221977,-6.0363884,-3.6290798,0.7916069,0.14472961,0.26729584
10.076618,-8.323017,-4.8499527,-0.32791138,0.66036224,0.6145668
8.312237,-6.9676895,-2.6283054,0.42938232,-0.5636978,-0.6998825
4.1582146,-6.1921043,-2.1470833,0.5785179,1.5658569,0.31095505
6.5116215,-9.764288,3.7045422,-0.7241821,-0.8480835,-0.5412674
6.9018097,-8.002003,0.1443367,-0.08398056,-0.70322037,0.25981903
1.9793892,-7.408186,-4.696932,-1.8906975,2.1346283,0.053272247
5.7863445,-5.7492123,-4.0815544,0.4922676,-0.34633636,0.44740677
9.53311,-6.9676895,-1.7565956,-0.25447845,-0.10881424,1.052494
12.458773,-5.9764977,-2.123127,0.7766533,-0.5849266,0.61136246
5.791136,-5.9597282,-2.0728188,-0.20975113,-0.19399643,-2.0453072
6.3154793,-6.8673725,-2.5061283,-0.018024445,-1.0089684,-1.5553093
7.6824856,-8.909348,-2.501337,-0.2437973,-0.18758774,0.5858612
9.76309,-5.289551,-7.452505,1.8920326,0.22470474,-0.28665543
5.903431,-4.1857643,-0.0401268,-0.5996132,0.80415726,0.87558746
9.449263,-5.775564,-5.506056,0.81617355,0.026435852,0.820179
10.526697,-5.8378506,-5.2736797,-1.8097878,-0.4272461,-0.20774841
12.679171,-4.18816,-3.935421,1.4904213,-1.2880135,-2.0326233
7.8810234,-6.1585655,-1.7661781,-0.18304825,0.5942726,-2.5343704
5.3482437,-6.8838425,-2.8388214,-0.5367279,-0.5551529,-0.6647682
6.8685703,-9.038712,-2.4965458,0.39319992,-0.2622223,2.8601456
8.2427635,-5.9836845,-4.2896748,-0.18304825,0.7711792,1.2228584
7.9768486,-4.3271065,-4.7397537,1.2167168,0.2789116,1.2452888
11.7862,-6.546358,-2.0105324,-1.2430191,0.5634308,0.33231735
10.91449,-6.579897,-3.38233,0.3623581,-0.48585892,-1.1665154
4.1582146,-5.6438046,-2.2186527,1.0100365,-2.0944405,-2.197647
5.04879,-5.988476,-3.0903625,0.0022697449,-0.35381317,-0.9651756
8.156521,-9.41213,-1.41432,-0.84033966,0.0073432922,1.5679932
9.195625,-4.714899,-8.185268,1.1900139,0.6879997,0.43031693
5.5156384,-5.236847,-0.5333271,-0.063819885,0.5729103,1.3634491
9.94965,-4.7771854,-7.9193535,-0.30454636,0.34820557,0.25354385
10.146091,-8.287083,-3.0017242,-0.8499527,-0.017223358,-0.5785179
8.991997,-6.1657524,-5.537199,1.065445,-1.4446259,-2.122078
4.6609974,-4.9038544,-2.0464668,-0.5707741,0.12657166,-1.3284683
6.9736786,-7.099449,-3.336813,-0.44727325,-0.4550171,0.7872009
10.081409,-6.546358,-0.3560505,1.3316727,0.4791832,2.3968506
5.810301,-5.5934963,-6.9161835,-1.4411545,0.31949997,-0.110816956
6.7368107,-6.206478,-2.566019,0.9195137,0.064888,0.7403374
8.611391,-7.1042404,-4.6154804,-0.3854561,0.18518448,0.78186035
10.282642,-6.6589527,-1.5053539,0.41028976,-0.6435394,0.5944061
10.718348,-6.5247974,-3.8348045,-0.49627304,-0.903492,-2.2455788
5.3982525,-5.902233,-2.4414463,0.057678223,-0.30160904,-2.4757576
7.043152,-7.2982864,-2.6546574,-0.38972855,-0.35274506,0.22043228
7.4884396,-6.5367756,-4.378313,0.5401993,0.45902252,1.3837433
7.222824,-5.7875423,-4.9146347,-0.6219101,0.07543564,0.8052254
8.034344,-4.664591,-3.1430664,0.5998802,0.26943207,1.042881
9.741529,-6.6014576,-5.036812,-0.4791832,0.27677536,0.30347824
8.400576,-7.506407,-3.653036,-0.69761276,0.22670746,0.19172668
10.040684,-5.8570156,-5.192528,0.9556961,-1.5554428,-1.6693306
7.775915,-5.725256,-2.3001041,-0.7562256,-0.048065186,-2.0752144
6.0687294,-5.8594112,-1.8859596,0.041656494,-0.41776657,-0.69467545
8.202038,-7.31266,-6.0878944,0.5337906,-0.0097465515,1.0737228
10.074223,-3.5344524,-6.214863,0.6360626,0.47384262,0.7647705
6.8661747,-4.7005253,-1.4047375,-0.7369995,0.81056595,0.9938812
8.338589,-3.84828,-6.796402,1.251831,-0.71603775,0.03725052
9.803816,-5.4617367,-4.46216,-0.60709,0.42390823,-0.07249832
10.174839,-4.650217,-5.609068,0.46783447,-0.5136299,-0.94488144
7.321045,-4.729273,-1.7422218,-9.3460083E-4,-0.2196312,-1.2219238
5.5324078,-4.3890934,-3.0400543,0.46676636,-0.34526825,-0.5624962
10.040684,-8.574259,-3.550024,-0.15434265,-0.089588165,1.1163139
8.826998,-3.0244827,-8.345476,2.4310303,-0.3782463,0.07770538
8.063091,-5.2512207,-1.1726608,-1.028862,0.8148384,-0.065021515
6.4852695,-3.7356853,-6.2576847,1.200695,-0.6137657,-0.8053589
11.438833,-8.35416,-5.2069016,-0.73379517,-0.028839111,0.05847931
9.920902,-4.2240944,-5.1997147,1.2593079,-0.76503754,-1.4776039
6.449335,-3.8554668,-2.280939,0.19292831,-0.45928955,-0.56142807
9.688826,-4.367832,-3.0855713,-1.0544968,-0.10347366,0.34086227
9.157295,-6.8338337,-2.4749851,-0.32363892,0.2576828,-0.1918602
7.0263824,-4.48971,-7.2560635,1.4638519,0.19266129,0.07129669
6.7104588,-4.5615788,-2.7121525,0.29626846,0.41109085,0.71149826
11.951199,-2.6103382,-8.417345,2.0347595,-1.7003059,-0.05968094
9.166878,-5.5934963,-5.999256,-1.7128563,1.4156532,0.14806747
10.390146,-8.133762,0.1443367,0.98760605,-0.834198,-1.825943
5.0080643,-4.4609623,-5.8818703,1.4212608,-0.7468796,-1.2358093
8.788668,-3.647047,-4.301653,0.40388107,-0.5966759,0.14593124
10.406916,-7.5135937,-5.7453194,-0.85956573,0.129776,0.43245316
5.453352,-4.123478,-4.7732925,0.43899536,0.14259338,-0.8288574
7.0527344,-3.5200787,-2.6690311,0.384655,0.16822815,-0.16195297
8.290676,-5.0715485,-8.390993,0.32297134,-0.28665543,0.07770538
11.331329,-4.109104,-2.611536,0.39319992,0.030708313,0.8223152
8.0583,-4.2696114,-5.1757584,0.1695633,-0.5838585,-1.348629
6.43017,-3.7740154,-0.7031174,-0.11388779,0.4365921,-0.90335846
10.198795,-4.7172947,-4.04562,-1.3878822,0.105342865,0.081977844
14.445948,-1.5041561,-2.649866,0.5711746,0.5719757,-0.25888443
9.942463,-0.26172256,-5.446165,0.2707672,0.5932045,-0.55929184
9.638517,-0.4530735,-0.5884266,0.5285835,-0.36556244,-0.64661026
9.336967,0.13116074,-3.1430664,-1.5455627,0.6347275,-0.3132248
10.754282,0.605196,-3.087967,1.1091042,-0.15140533,-0.40481567
8.168499,2.1351051,-4.888283,0.16529083,0.13832092,-0.49333572
8.508379,1.6871223,-2.8076782,-0.006275177,-0.31122208,-0.04793167
11.642462,2.66424,-5.594694,-0.35568237,0.14152527,0.44527054
8.970436,-0.12756729,-1.3807812,-0.2651596,0.043525696,-0.02243042
8.96804,1.8500252,-2.0991707,0.885334,-0.1695633,-0.2141571
5.2667923,-2.8855362,-3.8228264,0.34526825,-0.46035767,0.4568863
13.134041,-10.348522,-7.368658,-1.7032433,2.0207405,4.240818
11.369659,-4.6047,-3.569189,1.8601227,-0.8065605,1.0161781
7.2970886,-1.3939571,-3.9689598,0.88747025,0.14259338,-0.18117905
12.20274,-7.8989906,-2.9226685,-2.2634697,0.2076149,-0.64567566
11.991924,-6.247204,-3.3080654,1.3669205,-0.89494705,-1.8323517
6.573908,-2.6366901,-6.3511143,-0.011615753,0.068092346,-2.242508
6.2292366,-2.1985893,-3.0017242,-0.86170197,0.11816025,-0.88747025
11.2139435,-2.7013721,-9.047096,-0.19586563,-0.027770996,1.6319466
10.1005745,-2.423479,-3.7844963,1.3412857,-0.51683426,0.70295334
6.8826447,-1.6335201,-2.9011078,0.2419281,0.014820099,0.22684097
9.999958,-7.439329,-4.4789295,-1.8810844,0.16181946,0.7658386
9.166878,-7.439329,-1.8404427,0.31869888,0.342865,1.8450356
4.6873493,-2.4258747,-6.2385197,0.066223145,1.311245,0.38131714
9.207603,-4.3342934,-3.5164852,-0.18091202,-0.9141731,-0.0074768066
11.453207,-5.4832973,-5.166176,0.12056351,0.20227432,-0.42190552
12.892082,-5.028427,-7.0599213,-0.36743164,-1.0175133,-1.9068527
6.585886,-4.025257,-2.2186527,-0.71683884,-0.091724396,-2.0837593
5.9202003,-5.5096493,-2.7169437,-0.6847954,-0.49654007,-0.039520264
9.604979,-8.959656,-2.2545872,0.7851982,-0.25901794,2.6140785
7.9504967,-4.9469757,-8.6473255,0.9109688,0.52604675,1.3261986
7.493231,-3.1801987,-3.9905205,0.068359375,1.0363388,1.0779953
12.035046,-5.6749477,-4.4214344,-0.13404846,0.018024445,0.6134987
12.820513,-4.4609623,-7.105438,0.19613266,-0.67344666,-1.2645149
8.225994,-5.3659115,-5.4437695,-1.0448837,-0.5275154,-2.9955292
4.361843,-5.432989,-1.883564,0.022563934,-0.7139015,-1.7215347
8.79825,-8.686853,-0.17188644,-1.5594482,-0.010814667,2.2028542
9.98798,-7.0898666,-11.120514,3.6135674,0.565567,0.61777115
8.879402,-4.348667,-3.7198143,-0.620842,1.8183327,1.9206047
11.553823,-4.726877,-6.482874,-0.40575027,0.2012062,0.80308914
13.550581,-4.9948883,-4.117489,0.2622223,-0.45928955,-1.0398102
11.012711,-6.8625813,-5.9968605,-2.0195389,-1.0920143,-3.1106186
5.8603096,-6.630205,-0.41833687,-0.61777115,0.087184906,-2.5662804
4.476534,-5.562353,1.93507,-0.4207039,0.27784348,1.8364906
12.949577,-7.4560986,-8.585039,3.0521393,-0.19399643,2.7259636
9.071053,-3.7428722,-5.7237587,0.56476593,1.7234039,1.7149925
10.093388,-3.8743324,-4.828392,-0.528183,0.5367279,1.3272667
15.312866,-5.7228603,-5.415022,-0.8052254,0.01695633,-1.9451714
12.561785,-7.57588,-4.5244465,0.048065186,-1.6737366,-3.5004807
7.7998714,-5.550375,-1.8260689,-1.2025642,0.22670746,-2.3009872
5.204506,-6.285534,-0.8181076,-0.82538605,-0.50935745,-0.42617798
9.616957,-7.53755,-5.170967,2.3884392,-0.4624939,3.2510757
9.298637,-5.413824,-4.225292,-0.26195526,1.9174004,2.8995323
9.896946,-4.4154453,-5.158989,-0.19693375,0.2299118,1.839695
13.162788,-4.324711,-4.9361954,-0.23311615,0.34500122,0.36849976
14.218662,-5.9980583,-9.513945,0.20360947,-1.709919,-3.0179596
9.799025,-8.636545,-2.9370422,-1.9642639,0.34820557,-4.0342712
3.9905205,-6.3023033,-3.4134731,-0.6730461,-1.0962868,-1.2922859
7.4117794,-9.876883,1.4490566,1.4681244,-0.1779747,3.2010078
9.542692,-5.2584076,-8.709612,1.529808,0.99588394,2.2338295
8.774294,-3.2448807,-5.427,-0.024299622,1.2079048,1.450901
11.386129,-5.9333763,-2.2905216,-1.3814735,0.2938652,0.6924057
13.078941,-4.856241,-7.440527,1.1751938,-1.2145805,-1.5756035
8.122982,-7.31266,-1.8428383,-1.5466309,0.0073432922,-3.147869
2.1351051,-5.047592,-3.2793179,0.88640213,-0.30908585,-1.3443565
9.159691,-8.382908,-1.0265274,0.068359375,-0.3133583,2.8686905
12.803743,-4.3582497,-8.486818,2.1583939,0.1862526,2.0911026
7.909771,-4.3938847,-1.7134743,-1.1621094,1.3155174,-0.12470245
7.790289,-4.379511,-5.0392075,-0.022163391,0.22363663,-0.2066803
11.357681,-8.198444,-3.851574,-0.2789116,-0.15247345,-0.07036209
7.241989,-7.0659103,-4.3447742,0.83099365,-1.8622589,-1.2869453
5.941761,-4.4585667,-1.4813976,-0.7284546,0.5506134,-1.2516975
7.158142,-7.1425705,-2.3767643,-0.44620514,-0.3345871,-0.062885284
9.607374,-6.335842,-4.244158,0.80228806,-0.9184456,1.9482422
4.457369,-5.325485,-3.2817135,-0.8137703,0.8649063,-0.22911072
6.9018097,-5.0859222,-3.1598358,0.36663055,-0.31442642,0.06916046
9.509153,-4.913437,-4.5436115,-0.7913399,1.4071083,1.0918808
11.69277,-4.4968967,-4.907448,0.18224716,-0.65208435,0.054340363
4.613085,-3.9078712,-5.6186504,1.098423,-1.3956261,-1.8610573
7.7807064,-5.6845303,-4.4597645,-0.09252548,0.08398056,-0.5646324
10.344929,-8.950073,-4.397478,-0.25234222,-0.5679703,-0.5763817
6.3966312,-6.201687,-3.9953117,0.61590195,0.9085655,0.54006577
7.1797028,-4.619074,-3.5164852,0.08010864,0.7711792,0.93740463
9.588209,-6.690096,-5.5851116,0.018291473,0.055274963,0.6721115
11.465185,-5.718069,-1.9434547,0.19826889,0.10854721,0.2790451
10.131718,-6.1322136,-4.737358,-0.71683884,-1.8111229,-2.4640083
4.677767,-5.093109,-0.6531086,-1.1386108,0.5591583,-1.4455605
6.131016,-7.595045,-2.501337,-1.4208603,-0.6191063,0.65502167
9.652891,-5.0763397,-7.021591,2.572689,0.78172684,1.6788101
7.0838776,-4.286381,-3.0280762,-0.9926796,1.241951,1.5647888
9.652891,-3.6566296,-4.42383,0.4347229,-0.068359375,0.9928131
11.3433075,-4.899063,-5.1613846,-0.273571,0.2299118,-0.07143021
11.707144,-5.665365,-4.7541275,0.79587936,-1.5682602,-1.5414238
7.184494,-4.180973,-5.2545147,-0.33538818,0.5739784,-2.4875069
4.850252,-5.3994503,-2.4414463,0.19399643,-0.9471512,-0.93647003
8.953667,-8.4856205,-6.482874,1.0761261,-0.62337875,1.8343544
9.159691,-5.289551,-5.7836494,0.1770401,1.070385,1.28788
7.3545837,-3.4649792,-3.9689598,1.0217857,0.47063828,1.0033607
11.513098,-4.3819065,-5.968113,-0.052070618,0.528183,0.101070404
11.788595,-6.805086,-2.738205,-0.67625046,-0.30374527,-1.4658546
7.2467804,-6.6421833,-2.8460083,1.4435577,-1.6491699,-3.1084824
5.3506393,-4.351063,-2.649866,0.23017883,-0.4188347,-1.1410141
7.4812527,-7.1809006,-0.0041923523,-1.9120598,-0.22590637,2.044239
7.771124,-5.452154,-7.986431,1.8057823,0.103206635,1.2761307
6.6793156,-3.3931103,-4.260927,-0.5217743,1.0374069,1.237812
9.475615,-5.5336056,-6.001652,0.20360947,-0.085315704,0.95970154
10.172443,-5.8378506,-6.2265415,0.40388107,-0.22497177,-0.17904282
11.1828,-6.474489,-5.4677258,-0.8807945,-0.50081253,-1.7491722
5.5922985,-4.448984,-2.585184,0.37303925,-0.291996,-2.3979187
7.165329,-6.716448,-4.378313,-1.6148567,-0.57424545,0.81697464
8.6473255,-6.0627403,-3.698553,1.6151237,-0.24299622,0.91176987
5.438978,-4.2815895,-4.3807087,-0.9661102,0.8062935,0.7733154
7.4381313,-3.3763409,-4.457369,0.5785179,-0.2855873,0.85329056
11.915264,-6.6877003,-5.5851116,0.04272461,0.6134987,0.5869293
2.7768345,-10.791414,-2.424677,2.3905754,-0.75222015,2.15065
5.185341,-5.8330593,0.2641182,0.5264473,-0.3548813,0.3866577
7.158142,-6.2831383,-2.5636234,-0.7220459,-0.7468796,-0.27917862
13.272987,-6.397829,-3.1694183,0.13858795,-1.191082,-0.96090317
3.152649,-10.985161,-2.731018,-2.6896477,0.78386307,-1.4808083
1.3879681,-9.333374,0.8911743,0.19079208,-0.38358688,1.3251305
8.079861,-8.193653,-3.4254513,0.38038254,0.005207062,1.752243
10.95282,-6.098675,-4.4405994,-0.5356598,0.26622772,0.6209755
11.491537,-4.3699284,-4.476534,-0.06795883,0.21081924,-0.7723808
10.658457,-8.301456,-2.9178772,0.21215439,-1.1719894,-3.9042282
4.1845665,-6.6853046,1.8727837,0.40708542,-0.1130867,-2.8645515
7.921749,-8.0163765,-2.7121525,1.0462189,-1.1985588,1.8439674
9.34655,-9.788244,-6.937744,0.57331085,0.33432007,2.8389168
7.3378143,-4.422632,-1.8236732,0.05340576,1.4220619,2.210331
8.489214,-3.132286,-3.3487911,-0.23097992,0.8360672,0.3504753
11.127701,-5.2344513,-3.190979,-0.3514099,0.07116318,-0.5337906
13.323296,-7.8058605,-7.6178036,-0.28104782,-0.7139015,-3.0893898
4.1893578,-4.540018,-2.261774,0.15354156,0.09893417,-2.1210098
3.8422909,-5.1098785,-1.967411,1.130333,-0.81724167,0.046863556
12.425234,-11.739485,-4.9673386,0.29626846,-0.5540848,3.740139
8.632952,-6.1657524,-8.486818,2.1008492,1.6201973,0.9203148
5.0392075,-4.200138,-1.4694195,-1.4208603,1.0641098,0.12990952
9.406141,-6.905403,-4.0695763,-0.58252335,-0.67237854,0.08090973
9.545088,-8.375721,-3.6722012,-0.4142952,0.4941368,-0.64460754
8.723986,-9.287857,-4.2321796,-0.9937477,-0.4272461,-3.096733
0.475832,-6.5511494,-1.395155,0.46035767,0.5228424,-1.5574455
9.681639,-9.184845,-2.508524,0.58919907,-1.34449,1.5989685
9.908924,-8.308643,-1.3448467,0.67344666,0.9308624,2.832508
6.265171,-4.540018,-7.2249203,-1.4625168,0.5570221,-0.6850624
5.5276165,-5.301529,-0.0640831,-0.579319,0.41749954,-0.18331528
9.787046,-6.199291,-4.6394367,0.058746338,-0.59560776,-0.9076309
8.525148,-6.91259,-3.660223,-0.73913574,0.25981903,-0.5689049
9.147713,-5.466528,-6.274454,0.9556961,-0.7777214,-1.265583
6.7368107,-5.1362305,-0.56207466,-0.68159103,0.19479752,-0.65408707
5.127846,-4.8298893,-3.310461,0.33245087,-0.18865585,0.30988693
9.054283,-8.160114,-4.012081,-0.29493332,0.103206635,1.993103
9.344154,-5.883068,-1.4526501,0.95142365,0.7785225,2.4884415
7.0072174,-5.8378506,-4.1126976,-1.2824059,0.018024445,0.18852234
7.536352,-3.4242535,-5.393461,1.3881493,-1.0408783,-0.48585892
10.478785,-7.412977,-3.355978,-0.51656723,-0.92164993,-1.5777397
10.007145,-7.5159893,-2.206974,0.41669846,-0.21749496,-1.5446281
6.3514137,-5.878277,-1.1367264,0.5924034,-0.70962906,-1.8195343
4.3831043,-4.3582497,-2.695383,1.6183281,-0.5275154,-0.55288315
10.823755,-9.369308,-2.4725895,-1.5551758,-0.06942749,1.9344902
10.392542,-7.571089,-5.3144054,4.524269,1.515789,1.6756058
7.5411434,-5.8258724,-2.0440712,-2.4254227,0.05420685,0.41963577
8.632952,-4.918228,-5.3599224,0.3623581,0.33966064,-0.08104324
9.952045,-6.7260303,-2.989746,-1.2663841,0.078639984,-0.6275177
11.101349,-6.1968956,-2.9106903,1.7238045,-0.903492,-0.9418106
6.7847233,-4.2959633,-2.4917545,-0.3514099,0.22363663,-1.5319443
5.757597,-6.469698,-1.8596077,-0.16288757,-1.0207176,-0.6583595
10.411707,-9.656485,-4.80204,-0.1511383,0.043525696,2.8474617
11.664022,-6.3142815,-3.6961575,1.455307,1.1621094,0.15127182
6.1789284,-4.918228,-1.0193405,-0.8914757,1.0065651,1.125927
9.422911,-6.0244102,-3.5620022,-0.22457123,0.0041389465,0.23645401
9.071053,-9.105789,-1.5173321,-1.9482422,-0.0778389,0.086250305
10.241917,-9.369308,-2.7049656,2.7176857,-2.3905754,-2.3820305
8.989601,-10.291027,-1.2418346,-1.6658592,0.078639984,-3.911705
3.4949245,-5.3350677,-0.18865585,0.0097465515,-0.017223358,-0.8564949
7.5004177,-5.466528,-2.554041,0.24726868,-0.34420013,1.7406273
8.690447,-10.336544,-7.227316,-0.44727325,0.25661469,4.223728
14.917587,-6.3669853,2.3420277,-0.70295334,0.95970154,1.4934921
4.08395,-3.177803,-4.907448,0.37931442,0.42697906,0.34513474
9.164482,-4.3534584,-2.37916,0.75756073,-0.7117653,-0.40267944
12.030254,-9.141724,-4.6274586,-0.92658997,-0.4283142,-1.9483757
12.954369,-9.278275,-5.4964733,1.794033,-1.6491699,-3.5569572
6.1453896,-6.412203,-2.6594486,-0.6933403,0.065956116,-3.039322
2.7624607,-5.962124,-2.8819427,-1.8523788,-0.607357,0.3866577
13.845243,-10.530291,-4.637041,4.3336105,-3.1970024,1.8354225
9.739134,-5.0451965,-6.8850403,-1.098156,2.3477173,1.9781494
6.2555885,-3.0723953,-6.109455,1.2890816,0.9980202,1.0108376
11.285812,-5.641409,-4.476534,-0.24700165,-0.6627655,0.74674606
11.582571,-7.152153,-8.170895,-0.91070175,0.48452377,-1.5041733
12.391994,-9.28067,-3.3487911,-0.3215027,-0.9407425,-4.0927505
6.4469395,-5.8761806,-2.032093,-0.7859993,1.0491562,-2.3553276
3.9018822,-6.1082573,-2.4150944,-0.62618256,-0.44006348,0.7904053
9.964024,-9.527121,-4.268114,2.024212,-1.5128517,3.3363914
9.26989,-4.7628117,-6.403818,1.3658524,0.7018852,1.3634491
8.029552,-3.3763409,-5.16378,-0.31936646,0.9629059,0.86063385
10.818964,-4.070774,-4.7397537,-0.11602402,0.3225708,-0.34620285
13.047798,-7.015602,-7.574682,-1.0630417,-0.24833679,-2.1380997
6.3130836,-5.1937256,-5.2760754,-0.7519531,-0.14286041,-2.5555992
3.9426079,-5.4425716,-1.6562786,-0.48238754,-0.65208435,-0.41549683
8.326611,-10.491961,-1.6490917,-0.17023087,-0.43579102,3.6453438
9.753508,-3.90308,-10.105366,1.9688034,0.66036224,1.0386086
6.9497223,-5.730047,-3.1742096,-1.3900185,1.344223,0.4846573
8.963249,-4.722086,-4.586733,0.37090302,-0.49760818,0.5944061
13.153206,-7.2910995,-5.3838787,-0.4579544,-0.5998802,-0.834198
11.946407,-10.439257,-1.8069038,-0.61883926,-0.8033562,-3.341732
3.9378166,-5.164978,-0.55249214,-0.38118362,0.6635666,-2.0262146
4.098324,-5.9525414,-3.375143,-0.27677536,-0.27503967,1.2665176
14.57052,-9.498373,-2.9753723,1.7163277,0.68906784,4.501705
8.125378,-4.032444,-6.116642,-0.11175156,0.059547424,1.3144493
8.477236,-3.5128918,-4.079159,0.10347366,0.16716003,0.23218155
13.086128,-8.610193,-4.3567524,-0.9074974,0.085048676,-1.3295364
5.190132,-11.957188,0.36203957,0.65849304,-0.98653793,0.35461426
4.6801624,-6.175335,-2.1758308,0.30160904,-0.87265015,-1.7897606
6.5834904,-8.071476,-2.5636234,-0.9149742,0.006275177,0.5229759
7.2779236,-10.544664,-2.1662483,-0.33432007,0.90429306,1.5489006
4.4525776,-6.668535,-7.1868896,-0.35888672,1.0821342,0.13952255
5.915409,-5.8878593,-2.9609985,0.44754028,0.44513702,0.19493103
6.2963142,-7.4033947,-1.9698067,-0.3642273,0.88827133,0.4356575
9.85652,-9.970013,-5.7381325,-0.30454636,-0.5434036,0.13952255
8.434114,-8.847361,-2.585184,-0.21615982,-1.0089684,-2.2945786
2.1015663,-6.2304344,-2.0680275,-0.20975113,-0.28024673,-2.4267578
5.4102306,-7.95409,-3.0376587,-1.2344742,-0.17383575,0.80949783
9.415724,-11.0187,-2.0728188,0.9993553,0.92552185,2.9315758
5.2212753,-4.6478214,-5.953739,0.23872375,0.5080223,0.068092346
8.237972,-5.131439,-3.0376587,0.02576828,0.04673004,0.29720306
10.416498,-7.590254,-4.9290085,-0.29813766,-0.19292831,-0.7755852
10.526697,-9.340561,-3.511694,0.018291473,-0.94394684,-1.8728065
4.0168724,-5.730047,-2.2977085,0.14392853,-0.8033562,-1.3464928
3.5092983,-6.716448,-2.2045784,-1.1557007,-1.335144E-4,0.66783905
9.985584,-14.923576,-2.9178772,0.3623581,0.5719757,3.2745743
5.5587597,-4.3318977,-10.7446995,0.75756073,1.506176,0.4356575
7.9265404,-4.913437,-2.6426792,-1.3185883,-0.0992012,-0.5124283
8.295467,-6.038784,-1.4167156,0.036315918,0.33218384,-0.57317734
12.128475,-8.435312,-7.2632504,0.48906326,-0.79481125,-1.3753319
7.112625,-7.659727,-4.236971,-0.029640198,-1.650238,-2.8208923
0.1527214,-2.3875446,-0.58603096,0.8917427,-0.08104324,0.16288757
3.8755302,-6.7044697,-7.0311737,-0.35247803,1.3591766,2.8516006
21.544798,-8.6796665,-2.7097569,1.5117836,1.3782692,2.702465
3.0951538,-0.84835243,-5.9657173,0.4486084,0.62618256,-0.7862663
9.087822,-3.3931103,-1.627531,0.6499481,-0.13965607,0.7499504
20.55121,-11.459196,-5.285658,0.85769653,-1.6119194,-3.0371857
7.294693,-8.155323,-1.6155529,-1.0256577,0.6869316,-3.6549568
2.2381172,-4.8083286,-2.5420628,1.2496948,0.29920578,-2.5865746
9.920902,-10.101772,-3.4781551,-0.37050247,-0.5763817,5.0567245
14.683115,-7.0635147,-4.794853,2.854004,0.037117004,2.4713516
8.848558,-3.536848,-3.8084526,-0.5634308,0.66677094,0.71043015
7.261154,-5.5455837,-1.902729,-1.2089729,0.76049805,-0.3643608
7.5794735,-8.674875,-4.103115,-0.46957016,0.48666,-0.051136017
8.573061,-6.8170643,-5.3383617,0.9418106,-0.7703781,-1.0408783
4.969734,-5.77796,-0.9139328,0.556221,-0.7074928,-0.5582237
10.282642,-7.46089,-0.475832,-0.01909256,-0.8831978,-0.27597427
8.271511,-7.346199,-4.7493362,0.45394897,0.068092346,-0.5359268
7.112625,-8.2751045,-3.863552,0.84487915,-0.88106155,-1.9036484
2.748087,-6.455324,-1.7158699,0.23765564,0.9064293,0.3494072
8.120586,-5.6366177,-3.5931454,0.6861305,-0.66703796,0.95329285
12.628862,-6.033993,-4.945778,-0.07650375,-0.4847908,0.28011322
13.564955,-6.115444,-2.8124695,-0.026435852,-0.6606293,-2.3895073
6.1909065,-4.3414803,-4.584337,0.4347229,-0.7361984,-2.348919
6.6745243,-6.5511494,-4.488512,-1.2898827,-0.6861305,-0.9289932
8.17329,-9.416922,-0.3895893,0.21108627,-0.38145065,1.9877625
5.223671,-5.595892,-9.274382,0.9897423,0.8307266,1.7501068
8.953667,-4.2935677,-4.397478,1.7535782,-0.1918602,1.5647888
12.777391,-5.823477,-3.264944,-0.514431,0.67625046,0.68920135
9.837355,-7.041954,-2.9538116,0.46676636,-0.820446,-1.469059
8.247555,-6.069927,-1.4071331,-0.21936417,-1.005764,-1.3828087
7.687277,-5.7420254,-5.1805496,0.5040169,0.6496811,-0.24299622
6.844614,-10.286236,-3.5260677,-1.5924263,-0.06729126,1.3591766
8.21162,-8.607798,-4.957756,2.7815056,1.0577011,1.320858
8.900963,-3.841093,-2.359995,0.052337646,0.5016136,1.83115
11.520285,-5.90942,-5.060768,-1.0119057,-0.10240555,-0.5849266
11.829321,-8.234379,-4.7661057,-0.10427475,-0.12269974,-2.25626
8.295467,-8.176884,-3.9306297,-1.0044289,-0.78733444,-4.1012955
3.4518032,-4.540018,-1.7709694,-0.0041389465,0.24806976,-1.8642616
5.0967026,-6.9221725,-1.2993298,-1.9716072,-0.78840256,1.8673325
16.605608,-8.876108,-8.214016,3.396206,-0.091724396,4.139614
8.64493,-3.1873856,-3.7198143,-0.6145668,2.1538544,1.923809
10.469202,-5.5336056,-5.5228252,-0.8073616,-0.66490173,0.5058861
11.826925,-7.0395584,-3.4637814,0.6052208,0.03391266,-1.3156509
13.782957,-8.8545475,-6.624216,-1.3474274,-1.5820122,-3.2203674
6.2484016,-6.78113,-0.20542526,-0.26088715,0.53886414,-3.299141
3.1622314,-6.0363884,-3.8779259,-0.9798622,-0.5412674,0.31309128
10.892929,-10.319775,-2.932251,3.1054115,-0.8566284,3.027439
8.383806,-4.932602,-6.619425,0.12483597,1.709652,1.8780136
7.902584,-3.929432,-4.579546,-0.19800186,0.60709,0.9331322
11.987133,-5.471319,-3.3320217,-0.12336731,-0.2845192,0.16181946
12.901665,-6.9341507,-6.2768497,-0.83179474,-0.26756287,-2.7025986
6.0615425,-5.5455837,-2.4414463,-0.31936646,-0.25474548,-2.6929855
4.3307,-5.4569454,-3.1813965,-0.34606934,-0.4049492,-0.84487915
10.23473,-9.220779,-0.77259064,0.34526825,-0.35915375,2.7973938
10.347324,-6.4193897,-8.620974,1.1112404,0.95222473,1.9749451
7.3234406,-3.8911018,-5.4437695,-0.09893417,0.8127022,0.98960876
10.172443,-6.7978992,-3.2625484,-1.3101768,0.026435852,0.053272247
12.6216755,-5.196121,-4.586733,1.6374207,-0.96637726,-1.2784004
9.830168,-7.262352,-2.676218,-0.8722496,-0.1631546,-3.596344
4.7568226,-5.5455837,-2.9226685,0.65208435,0.08398056,-2.1060562
4.5507984,-7.377342,-1.8763771,0.13431549,-0.2761078,1.3251305
11.374151,-6.0244102,-8.302355,1.9964409,0.56770325,3.1466675
8.951271,-4.3007545,-1.6299267,-0.052070618,0.9714508,1.872673
8.49161,-4.0420265,-5.8219795,-0.087184906,-0.0992012,-0.043792725
13.598494,-8.095432,-4.842766,-0.6443405,-0.09813309,-1.0717201
12.858843,-8.61738,-4.775688,-0.71990967,-1.0611725,-3.1574821
6.0926857,-4.3318977,-2.2354221,-0.07757187,0.34179688,-2.2945786
5.71208,-7.0970535,-5.106285,-0.9575653,-0.61483383,-0.104408264
9.432493,-8.511972,0.6614933,0.1417923,-0.50081253,3.2159615
8.824602,-4.45138,-8.254442,1.1953545,1.0065651,2.5565338
8.630556,-3.9318275,-5.3671093,0.10133743,0.33966064,0.7733154
11.594549,-4.5448093,-3.909069,0.597744,-0.20788193,-0.06181717
13.859617,-6.996437,-7.349493,-0.19052505,-1.283741,-2.726097
7.2132416,-6.0483665,-3.0568237,-1.1694527,0.0041389465,-3.189392
4.0671806,-5.5024624,-3.621893,-0.514431,-0.8033562,-0.76704025
8.781481,-9.608572,1.2768707,0.8183098,-0.30054092,2.200718
7.620199,-5.8806725,-11.3142605,2.016735,1.131134,1.4327431
8.036739,-2.6726246,-5.5132427,-0.21081924,1.1769295,1.3144493
10.210773,-4.7843723,-3.3607693,-0.7369995,-0.30374527,0.3567505
14.525003,-5.2512207,-6.624216,0.26756287,-0.6563568,-1.6757393
8.118191,-5.6557827,-3.42066,-0.59747696,-0.71496964,-3.3428001
5.479704,-5.2967377,-0.68185616,0.20360947,-0.15781403,-1.2005615
6.7559757,-6.4792805,-1.8164864,0.0769043,0.28104782,1.533947
11.132492,-6.793108,-7.5291653,-0.16609192,0.38225174,2.6737595
8.927315,-3.7452679,-3.3655605,0.58706284,0.5570221,1.5818787
10.895325,-5.3970547,-4.7685013,-0.9629059,0.08611679,0.9010887
10.950424,-6.3837547,-3.5787716,0.19826889,0.09466171,-0.87999344
9.830168,-6.3214684,-5.31201,0.35381317,-1.2199211,-2.886982
5.106285,-5.0068665,-1.6706524,0.33151627,0.17250061,-2.2722816
7.426153,-6.376568,-2.7097569,-1.274929,-0.41028976,0.96076965
9.1549,-6.5703144,-6.2172585,1.8750763,0.082912445,2.6556015
6.8661747,-4.805933,-3.0184937,-1.2121773,1.4251328,1.8758774
7.2060547,-4.7891636,-8.666491,-0.16395569,0.34500122,1.0609055
12.688753,-7.9133644,-1.9650154,-0.5570221,-0.28345108,0.7061577
12.571367,-7.0587234,-5.5276165,0.76717377,-1.1229897,-3.146801
4.3402824,-7.9828377,0.98939514,1.3785362,0.37477493,-3.1159592
4.7568226,-8.547907,-3.3008785,-0.14472961,-0.68826675,-0.4005432
8.515566,-10.116146,-1.6874218,-0.5207062,-0.19399643,3.0796432
8.549105,-6.122631,-6.643381,-0.555954,0.51763535,1.5489006
8.855745,-3.9462013,0.072467804,0.34526825,0.7934761,0.9864044
9.837355,-6.0627403,-3.8563652,-0.6293869,0.49840927,-0.13324738
9.91132,-7.2264175,-4.744545,0.861969,-0.9396744,-1.316719
1.1127701,-9.278275,0.572855,0.8065605,-0.8555603,-1.9100571
5.101494,-4.81312,-3.0927582,0.7629013,0.31736374,-0.76063156
8.79825,-7.9013863,-2.3935337,-2.1175385,-0.07369995,1.269722
9.348946,-6.8529987,-2.4079075,0.99508286,0.59106827,1.6511726
6.6529636,-4.6526127,-1.5580578,-1.3655853,0.9287262,1.0087013
8.192455,-4.3771152,-4.014477,0.25367737,-0.35167694,0.20133972
11.565802,-5.6462,-3.0208893,0.33992767,0.39827347,-0.3632927
12.116497,-6.682909,-4.091137,-0.107479095,-0.77344894,-1.6203308
6.231632,-4.403467,-2.4486332,0.3261757,-0.64567566,-1.7865562
5.1541977,-5.8306637,-1.9698067,-0.045661926,-0.17690659,-0.18117905
8.865328,-10.28384,-4.1701927,-0.49520493,-0.25794983,2.484169
9.918507,-6.3478203,-7.0263824,1.3796043,1.8278122,1.195221
7.6106167,-4.664591,-0.44229317,-0.90963364,0.078639984,0.514431
9.904133,-4.9805145,-4.1893578,0.2344513,0.11922836,0.14913559
10.660852,-8.066685,-2.2378178,-0.4579544,0.3642273,-1.0482216
8.225994,-8.763514,-3.653036,0.56583405,-1.4521027,-2.623825
5.0847244,-4.9493713,-0.48062325,0.31549454,-0.2132225,-1.5467644
7.126999,-6.8745594,-2.822052,-0.45902252,-0.36769867,1.0908127
11.596945,-9.189636,-1.4502544,0.20467758,0.64006805,2.4957848
7.4117794,-4.3534584,-7.787594,-0.109615326,1.070385,0.04365921
5.692915,-4.77479,-0.6531086,-0.58893204,0.15434265,-0.3910637
9.621748,-7.068306,-4.442995,-0.082912445,-0.10026932,-0.04486084
10.577005,-8.349369,-4.033642,-0.22884369,0.002002716,-0.44433594
7.6178036,-7.647749,-2.905899,-0.6912041,-0.6702423,-1.6597176
4.186962,-4.963745,-1.2226696,-0.030708313,-0.9621048,-0.34727097
7.6058254,-7.903782,-2.6139317,-2.9634857,0.49840927,0.8000183
9.011162,-8.581446,-0.32251167,0.3484726,0.537796,3.1126213
10.160465,-4.22649,-8.685656,1.7461014,1.0087013,1.7171288
8.553896,-4.3007545,-2.2210484,-0.65395355,-0.2344513,0.17463684
9.791838,-6.6805134,-3.9593773,-0.2299118,-0.505085,-0.49333572
10.028706,-11.037865,0.912735,1.6864204,-1.1324692,-0.9343338
3.1167145,-7.53755,1.2912445,1.0451508,-0.6339264,-1.3338089
6.708063,-7.27433,-2.489359,0.006542206,-1.802578,0.04579544
9.5211315,-9.3237915,0.2162056,0.2909279,0.46756744,0.2715683
6.858988,-6.316677,-2.5444584,1.4031029,1.2994957,0.5432701
7.940914,-7.2599564,0.19943619,-1.4432907,-0.2057457,0.64661026
7.112625,-4.4657536,-5.357527,0.46035767,0.5442047,0.3919983
12.44919,-11.076195,0.0053901672,-0.528183,-1.029129,0.13738632
3.5907497,-10.367687,-3.5021114,-0.9948158,-0.7564926,-1.8920326
3.4374294,-6.424181,-1.8021126,1.0718536,-1.1388779,-0.28665543
8.47484,-8.952469,-1.8524208,-1.4603806,0.26836395,0.76049805
6.976074,-9.742727,3.3739452,1.4296722,0.7018852,2.005787
5.479704,-4.9948883,-9.892155,0.77251434,0.67518234,-0.4559517
3.9450035,-5.119461,-1.4670238,0.24513245,-1.2528992,-0.2419281
8.898567,-7.4033947,0.79325294,-0.07329941,-0.7618332,-0.10547638
8.386202,-10.659655,-1.9362679,-0.61136246,-0.5264473,-1.2516975
0.9618454,-7.762739,-0.35365486,2.0689392,-0.6775856,0.3216362
7.8573666,-8.251148,0.30214882,-0.9287262,0.078639984,0.6977463
6.9880524,-7.750761,1.5688381,0.63179016,0.82538605,0.4846573
6.700876,-9.879278,4.020466,0.67878723,0.48238754,1.2442207
6.265171,-5.0835266,-3.8012657,-1.1471558,0.91176987,-0.46556473
8.426928,-5.7803555,-1.8428383,-1.2685204,-0.5275154,-1.0088348
8.585039,-6.9293594,-2.592371,-0.47597885,0.8914757,-1.2538338
13.277779,-7.4896374,-4.5627766,0.33151627,-0.5072212,-1.3422203
5.04879,-4.0755653,-2.683405,0.12376785,0.18091202,-1.6288757
5.326683,-5.595892,-3.2433834,-1.3506317,-0.977993,0.6263161
12.878008,-10.518312,-1.7230568,-0.2076149,0.026435852,2.5811005
16.660707,-7.781904,-5.029625,4.3751335,1.5924263,1.218586
6.746393,-4.877802,-1.7374306,-3.211689,1.8299484,0.38772583
9.133339,-5.694113,-1.8691902,-0.73165894,0.124435425,0.18211365
10.955215,-6.1082573,-4.16061,-0.76049805,0.2512741,0.07022858
11.922451,-9.180054,-4.6226673,0.026836395,-0.9332657,-1.9740105
1.9889717,-5.9764977,-2.566019,1.0185814,-0.5701065,-0.84581375
6.109455,-7.1473618,-2.398325,-1.5583801,-0.34420013,-0.22483826
11.000732,-10.159267,-1.2801647,-0.082912445,0.07329941,1.8204689
11.424459,-9.120163,-5.12545,4.702244,1.4103127,0.9778595
7.3234406,-4.879898,-4.5963154,-1.7075157,-0.035247803,-0.8074951
8.707216,-7.415373,0.33568764,-2.1549225,-1.4084435,-0.7116318
10.629709,-6.8290424,-4.9817123,0.72244644,-0.22069931,-0.8074951
15.8971,-9.678045,-5.082329,-1.2547684,-0.44647217,-3.2192993
3.7943783,-6.5631275,-1.0241318,0.32938004,0.2150917,-2.2967148
1.4454632,-6.409807,-2.7717438,-1.5274048,0.12763977,1.0204506
12.0422325,-17.816,-2.5181065,-3.7218475,-0.2558136,5.9068108
10.902512,-4.669382,-6.0687294,4.2920876,-0.26542664,1.1376762
7.763937,-2.5552387,-4.012081,-2.0079231,1.5359497,0.58052063
14.13242,-5.667761,-0.2530384,-0.07329941,-0.556221,-0.5986786
15.995022,-9.917309,-5.376692,0.6755829,-0.3272438,-3.8158417
6.2819405,-8.454477,-0.8396683,-0.6283188,0.03177643,-4.46352
-0.9295044,-4.4274235,-2.180622,0.22603989,-0.6137657,-1.5553093
12.085354,-13.920406,-3.42066,0.72351456,-0.98867416,5.418949
7.375845,-6.9533157,-8.716799,2.9190254,1.8001747,1.8279457
7.921749,-2.227337,-6.2028847,-0.29813766,0.32684326,1.0439491
12.906456,-6.943733,-1.692213,-1.6531754,-0.116291046,-0.42297363
14.072529,-7.9972115,-5.7072887,1.1974907,-0.36876678,-2.809143
6.456522,-7.3914165,-1.9698067,-0.11281967,-0.50935745,-3.9915466
3.4350338,-4.417841,-1.9817848,0.5072212,-1.3637161,-0.16942978
10.325764,-9.541494,1.9734001,-0.09893417,0.63365936,2.6812363
10.3401375,-7.9205513,-7.387823,1.9857597,0.7147026,2.3179436
9.068657,-4.322315,-4.1390495,-0.061683655,0.9575653,1.9088554
12.104519,-5.873785,-5.798023,-0.7562256,0.28532028,0.16181946
13.866804,-6.9293594,-3.3248348,0.2696991,-0.31442642,-1.8696022
9.205208,-7.7411785,-2.3216648,-0.6571579,-0.85983276,-3.9372063
4.4789295,-5.6581783,-0.07126999,-0.01695633,-0.7841301,-1.7087173
6.2747536,-6.508028,-1.2061996,-0.43231964,0.53993225,1.7490387
12.944786,-7.942112,-4.5891285,1.5597153,0.40254593,3.4418678
8.458071,-4.444193,-5.486891,0.18865585,1.4049721,1.9024467
10.998337,-5.485693,-5.4629345,-0.71043015,-0.35167694,0.5591583
12.049419,-7.113823,-2.0752144,-0.44834137,0.34179688,-1.7311478
11.139679,-7.327034,-5.2545147,0.22911072,-1.1953545,-3.0605507
5.960926,-5.641409,-1.3616161,-0.022163391,0.08398056,-2.530098
5.0775375,-6.9748764,-1.258604,-1.5838814,-0.2419281,0.7626343
11.69277,-8.064289,-2.7525787,2.0401,-0.015087128,3.2180977
7.646551,-3.0316696,-6.571512,0.12163162,1.5051079,1.5701294
9.976002,-5.543188,-4.1965446,-0.7018852,-0.4134941,0.94701767
12.303356,-6.9676895,-4.2537403,-0.39827347,-0.31656265,-0.569973
11.90089,-7.705244,-2.9825592,0.061950684,-1.3136482,-2.8891182
6.535578,-5.2344513,-1.8404427,-0.7241821,0.5867958,-2.2616005
5.8483315,-6.7883167,-2.618723,-0.7284546,-0.34420013,-0.28131485
9.279472,-8.571863,-4.6154804,1.1698532,-0.5412674,3.1435966
12.030254,-5.0955048,-3.8731346,-0.21829605,1.376133,2.016468
7.2515717,-2.9981308,-3.4422207,0.0630188,0.977726,-0.051136017
11.295395,-5.3707027,-2.3024998,-0.8786583,0.9661102,0.28759003
12.624071,-6.4601154,-7.315954,0.7682419,-1.478672,-1.8227386
6.3466225,-4.22649,-2.5612278,0.95142365,-0.7394028,-2.4203491
6.4349613,-5.9645195,-3.954586,-1.45504,-0.31122208,-1.0408783
7.7399807,-9.177658,-2.1949959,0.5285835,-0.26115417,1.9280815
10.047871,-5.821081,-6.0926857,-0.11709213,0.6518173,2.2976494
8.527544,-3.2664413,-3.5404415,-0.25447845,0.24486542,1.210041
11.932034,-6.0603447,-4.469347,-1.2952232,0.6783867,1.0908127
13.485899,-4.540018,-7.023987,2.210598,-1.334877,-1.6043091
9.4564495,-7.2264175,-2.3671818,-1.9407654,0.8159065,-3.419571
3.4733639,-5.6965084,-4.392687,0.463562,-0.8427429,-2.1274185
8.0487175,-9.888861,-0.16230392,-0.82431793,-0.24726868,3.203144
9.60977,-5.3446503,-9.89455,2.1562576,0.5452728,1.7459679
7.7232113,-3.3191452,-5.2021103,-0.24806976,0.723114,1.57547
14.898722,-6.2759514,-5.525221,-1.0598373,-0.14606476,0.4292488
13.119667,-7.2671432,-6.1453896,0.34526825,-0.5859947,-3.5441399
5.7216625,-5.3302765,-1.4023418,-0.5516815,0.32363892,-3.1638908
3.236496,-5.5479794,-4.04562,-0.2938652,-0.39747238,-0.4058838
9.791838,-9.797827,-1.5987835,-0.37584305,-0.25260925,4.181137
9.846937,-4.109104,-7.414175,0.7042885,0.36102295,1.1717224
6.1573677,-2.2752495,-4.3304005,0.49440384,0.55381775,0.3419304
10.658457,-5.4449673,-2.7049656,-0.92445374,-0.050201416,0.45274734
15.822836,-5.339859,-8.402971,0.98119736,-1.2368774,-1.6299438
7.3854275,-5.4114285,-2.3240604,0.022563934,-0.028839111,-3.20755
5.731245,-5.8594112,-3.3511868,0.09813309,-0.17169952,-1.1378098
8.336193,-9.591803,-2.7861176,-1.1982918,0.20975113,2.330761
8.623369,-4.351063,-8.965645,0.019359589,0.44727325,1.5083122
7.771124,-3.26165,-3.4494076,0.65956116,0.2651596,1.352768
12.197948,-5.5216274,-3.928234,-0.87545395,0.4078865,1.0897446
12.925621,-4.585535,-6.334345,2.0188713,-0.95996857,-1.4211273
9.619352,-6.201687,-3.7940788,-1.1535645,0.11068344,-3.5655022
4.7496357,-6.0244102,-3.6075191,0.15781403,-0.6861305,-1.9047165
6.9353485,-9.498373,0.5752506,-0.57718277,0.020160675,2.39151
9.341759,-5.3730984,-9.748417,1.608715,0.39827347,1.9589233
8.362545,-3.6374645,-2.6259098,0.0012016296,1.2355423,1.390152
11.858068,-6.637392,-5.1182632,-1.4379501,0.21081924,0.17356873
12.456377,-4.4202366,-3.4230556,1.218853,-0.39426804,-0.72978973
11.146866,-7.255165,-2.3887424,-2.070675,0.40468216,-3.3588219
3.1957703,-5.160187,-4.5699635,1.1176491,-0.4689026,-2.173214
8.553896,-7.815443,0.3476658,-0.17557144,-0.44326782,2.6172829
10.182026,-6.5583363,-6.617029,3.2363892,0.7519531,2.2274208
8.664095,-4.77479,-2.424677,-1.2611771,1.6020393,2.0590591
9.636122,-4.4801273,-5.733341,0.30908585,0.18945694,0.49747467
11.764639,-7.731596,-3.8036613,-1.5083122,0.14579773,-0.7435417
11.031876,-5.622244,-6.403818,0.18758774,-0.7426071,-2.307396
8.149334,-6.7332172,-0.11678696,-0.10213852,0.52497864,-2.6003265
3.6769924,-5.5982876,-3.1215057,0.625515,0.045661926,-1.0717201
9.772673,-9.136932,-8.0487175,0.11842728,-2.8017998,1.7310143
11.635275,-3.776411,2.9142838,-2.5670815,2.2401047,0.84688187
9.229164,-0.99658203,1.3412533,-0.087184906,0.4207039,0.084114075
12.458773,-1.8060055,-3.980938,-1.1694527,0.74554443,0.42390823
15.279327,-3.453001,-4.526842,-0.1862526,-0.19506454,0.41002274
8.975227,-2.7325153,-6.4157963,0.15995026,-0.2558136,-1.1367416
5.4677258,-3.94141,-1.3831768,0.2761078,-0.35701752,-0.9769249
8.472445,-7.137779,-2.2186527,-0.2874565,-0.0012016296,1.7917633
13.821287,-4.5879307,-8.233181,1.3168526,0.15647888,1.6916275
6.384653,-2.0117302,-3.779705,-0.29066086,0.8510208,0.87345123
12.193157,-3.6422558,-3.9210472,-0.16822815,-0.23979187,0.7626343
11.829321,-5.5551662,-1.8548164,-0.120162964,0.08932114,-1.1868095
8.565874,-6.3023033,-2.0153236,1.5501022,-0.8566284,-3.1457329
5.357826,-4.676569,-1.0672531,-0.107479095,0.51015854,-1.2666512
6.9161835,-8.224796,-2.8531952,-0.080776215,-0.4134941,1.9802856
12.229092,-5.5407925,-6.066334,1.2625122,0.107479095,2.085762
7.7016506,-4.0372353,-1.3137035,-0.6922722,1.1801338,1.5189934
8.896172,-4.7388554,-5.697706,-0.120162964,0.08825302,0.53899765
11.295395,-7.815443,-3.054428,-0.5452728,0.7284546,-0.46770096
9.882572,-6.754778,-5.376692,0.28665543,-1.0791969,-1.8717384
6.6290073,-4.9613495,-0.6794605,-0.45902252,0.7423401,-1.502037
4.2109184,-9.35733,-1.9865761,-1.3729286,-0.04486084,0.62524796
10.416498,-8.224796,-0.3177204,1.6737366,0.19266129,2.7067375
5.2140884,-2.6486683,-5.5156384,-0.555954,1.0810661,0.6423378
7.8310146,-4.501688,-3.3344173,-0.38972855,0.1862526,-0.07143021
11.798178,-8.624567,-3.2697353,-0.47063828,-0.12590408,-0.2845192
7.897793,-8.279896,-3.4350338,-0.21722794,-1.0419464,-1.1249924
4.1582146,-5.797125,0.28567886,0.3910637,0.46649933,-0.7723808
9.545088,-9.986782,-1.8572121,-1.1204529,-0.75328827,1.1323357
7.737585,-6.919777,-1.692213,1.20924,0.34606934,1.7906952
7.4045925,-2.990944,-7.107834,-0.35995483,0.19693375,-0.54540634
7.9049797,-4.9805145,0.22099686,-0.4014778,-0.09599686,-1.2848091
10.567423,-6.393038,-4.8451614,-0.66143036,0.2576828,-0.6551552
11.257065,-5.6965084,-5.139824,1.0207176,-1.126194,-1.3625145
7.086273,-3.3811321,-0.5261402,0.052337646,0.39506912,-1.1324692
6.463709,-6.11784,-2.9106903,-0.022163391,-0.38892746,0.07129669
10.110157,-8.97403,-3.897091,-0.47597885,-0.08104324,2.0814896
9.128548,-5.11467,-6.001652,2.5535965,-0.40067673,0.67531586
8.065487,-3.7069378,-1.8955421,-0.83286285,1.0789299,0.3494072
9.983189,-5.895046,-2.9418335,-0.51229477,-0.35381317,-0.051136017
12.209927,-5.9501457,-5.1733627,0.6829262,-0.7755852,-0.8831978
9.542692,-6.886238,-0.60998726,0.16529083,-0.690403,-2.8570747
4.780779,-4.1570168,-2.4342594,0.33885956,-0.62444687,-1.8344879
7.047943,-6.3861504,-2.7477875,-1.4400864,-0.116291046,0.8649063
10.521906,-7.2024612,-3.8084526,1.5639877,-0.17276764,2.6386452
8.558687,-2.9118881,-6.2864323,-0.065956116,1.598835,2.0100594
9.612165,-3.2329025,-4.8715134,-0.44086456,-0.22697449,0.9480858
12.698336,-6.031597,-4.7205887,-0.7359314,0.09252548,-0.6476784
11.551428,-8.840174,-3.2817135,1.2625122,-1.075058,-3.1425285
13.325691,-2.9334488,-1.7853432,-1.4326096,1.2408829,-2.3330307
11.565802,-3.5081005,2.9070969,-1.9109917,7.8603935,-1.5351486
6.4996433,-1.3175964,1.3771877,0.4847908,2.5266266,-0.40161133
6.3750706,0.89476776,4.925415,0.67972183,0.065956116,0.109615326
0.67227364,1.8356514,6.0866966,-0.8914757,1.1418152,-0.40481567
10.44285,2.0824013,7.362669,1.7685318,-6.185055,-0.2578163
3.7800045,-2.761263,19.156654,-0.3503418,3.3426666,0.95222473
1.203804,-0.30963516,10.434465,-0.30561447,0.16822815,0.51656723
5.144615,1.5724316,2.2800407,-0.20334244,-1.2689209,0.34513474
-4.9469757,4.6774673,15.43115,3.456955,2.6939201,1.3655853
-1.0948029,-2.148281,4.422632,5.0377655,3.3618927,-1.1494255
-8.567072,-3.4769573,0.2641182,0.83740234,3.7836647,-4.370861
-15.196678,-8.167301,1.4107265,-1.260109,-0.6765175,-3.5622978
-13.080139,-1.2840576,4.2360725,-0.98199844,-2.0443726,-2.5652122
-6.168148,-2.6079426,-0.5165577,-1.0512924,-1.5809441,1.5275383
-7.831913,-3.6302776,-1.948246,-0.30988693,0.30881882,-0.6498146
-13.283468,0.08085251,-3.5643978,-0.18091202,-0.10240555,0.15861511
-16.460672,-2.617525,2.246502,0.65208435,1.8832207,2.228489
-9.46723,-5.2727814,2.5504475,1.5873528,-0.5998802,3.2255745
-3.635069,-6.970085,-0.35365486,0.8183098,0.3002739,1.6884232
-8.997986,-6.1849174,-0.74144745,-1.2387466,-0.45715332,-2.1987152
-12.371332,-3.3383102,1.7724667,-1.8267441,-0.07156372,-3.1425285
-9.469625,0.12157822,-3.164627,-1.218586,-0.6574249,-1.6906929
-13.877285,-0.8744049,0.572855,-0.68159103,0.06061554,-1.2506294
-16.707422,1.4909801,0.7501316,2.683506,1.3399506,1.798172
-10.487169,-5.497671,2.1674461,3.0957985,0.8659744,3.6847305
-6.203783,-5.7803555,0.12996292,0.7851982,1.1386108,1.8609238
-6.476885,-7.0587234,1.25531,0.5626297,-1.08881,-1.8610573
-11.545439,-4.1522255,-2.8076782,-1.3655853,-0.39640427,-2.4406433
-8.483225,-2.6366901,-1.1463089,-0.91070175,-0.9929466,-2.1933746
-13.5949,-3.4937267,0.14912796,-0.76890945,0.080776215,-1.5681267
-16.862839,0.41594124,-1.5532665,1.6842842,-0.15354156,0.5709076
-12.950775,-8.607798,2.5648212,2.0411682,-0.33992767,4.9929047
-2.7274246,-5.7084866,-0.61717415,1.5511703,1.7629242,1.9163322
-10.199993,-5.698904,4.6717777,-1.2633133,0.56022644,-2.2519875
-12.007496,-5.224869,0.2880745,-0.65502167,-0.8767891,-3.2747078
-11.126503,-2.2728539,-0.69862556,-0.86797714,-1.3157845,-2.2115326
-12.996292,-1.2960358,-2.1135445,-0.15007019,-1.5884209,-0.5475426
-13.95155,-3.8147411,1.3939571,-0.47704697,0.3439331,0.23324966
-13.295446,-5.758795,1.8176842,1.8451691,1.825676,3.4801865
-4.688547,-8.272709,5.2655945,1.413784,2.5640106,3.6143684
-8.430521,-5.7923336,0.98220825,-1.77454,0.40575027,0.9629059
-8.926117,-5.4761105,2.1195335,-0.81056595,-0.8694458,-2.318077
-8.184071,-2.2704582,-2.168644,-1.4805412,-1.1570358,-2.019806
-10.271563,-1.2481232,-2.2138615,-0.29172897,-0.12163162,-1.1579704
-14.052166,-0.4698429,-2.4031162,-1.385746,-0.21001816,-0.38679123
-15.378447,-3.6805859,1.667059,-0.53993225,1.1833382,2.627964
-9.268393,-4.5304356,0.56806374,-0.0041389465,-1.3147163,2.6301003
-5.0332184,-7.8798256,0.5249424,1.877079,-0.006542206,1.7128563
-12.225199,-4.650217,-4.9745255,1.5554428,0.46649933,-2.5481224
-10.45363,-3.4482098,-2.482172,-0.9490204,-1.2304688,-1.993103
-7.9828377,-0.9534607,-3.863552,-1.4219284,-1.1709213,-1.7790794
-15.464689,-1.0301208,0.4458866,-0.9053612,0.9916115,-1.4583778
-14.787025,-2.5648212,2.3683796,1.5288734,0.23738861,1.9344902
-12.697138,-6.3262596,1.465826,1.2304688,-0.41669846,4.2247963
-4.7409515,-6.331051,-0.63394356,1.8888283,1.3782692,2.4788284
-5.1553955,-6.9676895,0.070072174,-0.1511383,-0.44540405,-1.9292831
-14.736717,-6.7643604,-5.7692757,-1.7724037,-0.6925392,-3.4174347
-15.378447,2.5516453,-7.2560635,0.7500839,-0.3771782,-3.6038208
-11.914066,-3.7596416,1.2648926,-0.87545395,-1.557579,1.8865585
-9.392965,-6.991646,0.08444595,1.0601044,-0.30054092,1.6330147
-9.756802,-1.640707,-0.74863434,1.751442,0.46222687,1.1802673
-5.5479794,-2.6917896,-2.3024998,1.2890816,0.006275177,1.6862869
-7.9133644,-5.0116577,-1.5748272,-1.0342026,0.26622772,-0.39733887
-11.846989,-2.2704582,-3.980938,0.88853836,-0.32831192,-1.9782829
-8.497599,-2.457018,-0.50457954,-1.8704033,-0.8683777,-2.1764183
-10.599764,-1.7485104,-0.5093708,-0.2789116,0.2215004,-1.3188553
-14.200695,-1.4370785,-3.4518032,-0.46115875,-0.6339264,-0.1640892
-15.850086,-2.56003,-1.7925301,0.8534241,1.2727928,3.0135536
-9.472021,-6.754778,-0.16949081,0.014019012,0.41002274,5.6926537
-3.0077133,-4.4849186,-0.33448982,-0.06702423,0.4142952,0.7136345
-15.203865,-2.2560844,-1.9578285,-0.12657166,-0.93753815,-2.2530556
-13.249929,-0.5033817,-1.0169449,-1.2387466,-0.95783234,-3.0765724
-8.581446,0.011379242,-2.07761,-2.6214218,-0.43685913,-1.4850807
-15.249083,2.6354923,0.14673233,-0.19266129,0.5005455,-0.5443382
-15.572493,3.786892,0.37401772,1.1836052,0.020160675,2.4531937
-11.85178,-2.945427,-0.32969856,2.3852348,-0.3771782,3.611164
-4.664591,-4.142643,-0.47104073,1.7131233,0.30454636,1.626606
-10.252398,-3.055626,0.16589737,-0.60281754,-0.09813309,-1.4893532
-13.42481,-1.0516815,0.40995216,-2.3008537,0.8414078,-2.1678734
-9.941265,1.8883553,-0.34646797,-1.2111092,0.5345917,-2.2861671
-15.572493,2.9729767,2.4138966,-2.9665565,-0.33031464,-1.25597
-13.1879425,0.9690323,6.8026905,2.0272827,-0.514698,0.9352684
-11.782307,-4.1378517,2.754076,4.744835,0.19800186,2.7482605
-7.106636,-4.2672157,-0.48301888,2.242508,0.9479523,2.0814896
-7.666914,-5.698904,1.5089474,-0.7913399,-0.41669846,-0.5401993
-11.734394,-4.4609623,-4.1989403,-1.2920189,-0.81617355,-2.3649406
-9.900539,-2.8139668,0.1922493,-2.0344925,-0.54553986,-3.3950043
-16.645136,-0.41474342,-0.25064278,-1.107769,-0.16101837,-1.0941505
-10.592577,-0.76210976,1.4083309,0.90883255,-0.11095047,0.56663513
-15.661131,-3.5799694,1.8655968,1.2912178,1.8267441,3.2362556
-8.392191,-5.928585,1.0852203,1.8398285,0.49734116,3.15094
-2.3564014,-7.408186,-1.2178783,-1.6765404,-1.0185814,0.39627075
-11.30348,-7.075493,1.0948029,-0.73165894,0.26088715,-3.1532097
-11.033073,-1.5017605,-2.5947666,0.30481339,-1.1281967,-2.5992584
-9.843044,-1.9829826,-1.1151657,-1.6989708,-0.74581146,-1.7108536
-15.685087,-0.99658203,0.62555885,-1.0427475,0.022296906,-0.0500679
-17.60758,-5.3159027,1.3604183,-0.24059296,0.26195526,4.550705
-9.855022,-6.946129,0.5632725,2.8411865,0.05847931,3.7934113
-5.3275814,-5.490484,-0.9378891,1.1314011,1.4240646,1.5136528
-8.770401,-3.6111126,-2.2330265,-1.649971,-0.30160904,-2.080555
-12.491114,1.9650154,-1.6970043,0.53806305,0.47811508,-1.0749245
-7.6621227,2.996933,-0.5189533,-1.1109734,0.11388779,-0.9012222
-11.174416,0.10480881,-1.543684,0.08638382,0.40254593,-0.8053589
-14.890038,4.052807,-1.5580578,2.2403717,0.7562256,-0.7084274
-12.26832,0.7150955,0.6207676,2.2138023,-1.2667847,2.997532
-6.5176105,-2.8831406,-2.6330967,0.9332657,0.4078865,2.1996498
-4.540018,-5.53121,1.0636597,-1.0395432,0.29172897,-1.4318085
-15.194283,-1.5712337,0.2641182,-0.7637024,0.1862526,-3.4355927
-10.324266,1.7613869,-3.7940788,-1.6765404,-1.8185997,-1.3391495
-7.484846,-3.3095627,-2.4677982,-1.2068367,0.25875092,0.28118134
-13.539801,-0.9846039,2.880745,-0.51763535,0.8446121,-1.1057663
-14.969093,-1.7724667,3.0364609,1.5394211,0.043525696,2.8015327
-8.8255005,-4.1402473,-0.7126999,2.427826,-0.2855873,3.5024834
-5.8040123,-5.6749477,-0.21021652,0.72992325,0.3514099,-0.1140213
-9.048294,-6.350216,2.1458855,-2.3700142,-0.27397156,-2.7515984
-8.377817,-2.8499012,-0.07845688,-1.8896294,-0.9674454,-2.9253006
-11.7056465,-2.083599,-0.57644844,-1.3314056,0.15968323,-1.877079
-14.056957,-0.912735,2.1985893,-0.8638382,-0.7053566,-0.38999557
-15.229918,-2.1866112,1.0636597,1.844101,1.3910866,2.52676
-10.400927,-5.8642025,0.8720093,1.7077827,0.59000015,3.7677765
-7.1305923,-6.012432,0.8983612,0.85128784,1.3495636,1.482811
-8.243662,-7.4513073,1.8560143,0.4199028,-1.9517136,-2.0688057
-8.811127,-5.004471,-2.5564365,-2.9038048,-0.6914711,-0.9491539
-10.367388,-2.8711624,0.2162056,-1.274929,-0.72978973,-3.1074142
-14.921181,-3.3119583,3.0819778,-0.96918106,-0.068359375,-1.9963074
-13.695517,0.17877388,0.8648224,1.2231255,0.28852463,1.4956284
-12.163212,-5.4952755,2.148281,1.2294006,1.1663818,3.2938004
-7.202162,-6.53438,1.3484402,1.0782623,0.8009529,2.6652145
-5.672552,-7.472868,2.0284996,-0.065956116,-0.09706497,-0.5081558
-11.310667,-2.964592,-4.194149,-0.9372711,-0.8831978,-1.6053772
-8.277201,-3.764433,1.8488274,-1.5380859,-1.0196495,-2.6940536
-13.853329,-3.2712326,-0.540514,-0.9862709,0.2576828,-1.9218063
-13.539801,-0.8983612,1.7988186,0.67878723,0.17557144,-0.110816956
-12.47674,-3.929432,1.6311245,1.5256691,1.3645172,2.7835083
-9.455252,-5.5527706,2.4546223,0.85983276,0.11175156,3.1265068
-6.1082573,-6.6349964,0.8264923,0.977993,0.7061577,0.89481354
-8.004398,-6.069927,1.6287289,-1.0523605,0.06275177,-1.9952393
-8.849457,-3.8171368,0.8815918,-1.9983101,-1.0440826,-2.5705528
-11.712833,-2.2081718,-2.223444,-0.6794548,-0.12804031,-1.6511726
-13.458349,-0.10840225,0.13475418,-0.5069542,-0.112018585,-1.1207199
-12.297068,0.43031502,0.28328323,1.4670563,0.90215683,1.8258095
-12.866928,-5.7731686,1.2409363,0.55835724,0.71043015,3.5942078
-6.3427296,-6.3070946,1.4298916,1.3690567,0.7849312,1.8790817
-7.49922,-6.8098774,-1.6155529,-0.16181946,-0.6702423,-1.0440826
-10.259584,-4.56637,-1.589201,-0.9500885,-0.5988121,-1.8792152
-10.005947,-2.8235493,-1.3999462,-0.70936203,-0.3208351,-2.4832344
-14.324968,-2.0428734,-0.2530384,-0.37477493,-0.20681381,-1.7481041
-13.003479,-1.3104095,-0.04252243,1.6236687,0.1650238,0.81697464
-13.40325,-5.320694,0.08684158,0.48799515,1.3176537,3.5972786
-7.4321423,-6.3861504,1.4778042,0.32510757,0.20654678,2.96669
-4.487314,-5.1697693,0.94866943,0.22176743,0.11068344,-0.20454407
-9.22048,-4.8466587,-1.0648575,-0.9010887,-0.5136299,-2.6535988
-12.17519,-3.3407059,1.0205383,-0.7423401,-0.8001518,-3.2715034
-10.609346,-1.5185299,-2.1973915,-0.73272705,-0.09599686,-1.274128
-12.156025,-2.1842155,-0.29136848,-0.5345917,-0.16101837,-0.5060196
-13.985088,1.2466259,-1.4239025,1.4850807,1.1695862,1.3730621
-12.66839,-6.6781178,1.3963528,0.5636978,0.8371353,4.1779327
-5.5024624,-5.1553955,1.1139679,0.23017883,0.33218384,2.221012
-6.1777306,-5.332672,0.76210976,0.08852005,-0.5072212,-1.3774681
-13.712286,-3.5679913,-0.95705414,-1.2888145,-0.5275154,-3.2725716
-10.491961,-1.3343658,0.9199219,-1.3228607,-1.3391495,-2.22435
-10.975578,-2.488161,-0.200634,-1.1610413,-0.02363205,-1.0952187
-15.304182,-1.2912445,0.92471313,1.2432861,0.66036224,-0.041656494
-13.558966,-5.126648,1.0444946,2.2829628,1.3634491,3.1062126
-7.3219433,-5.088318,1.7533016,0.76610565,0.46222687,2.6534653
-8.112202,-5.7851467,1.236145,0.52217484,0.7731819,0.42390823
-6.3618946,-6.7044697,0.5512943,-1.0395432,-0.7969475,-1.2591743
-8.567072,-4.154621,-1.0648575,-0.9734535,-1.2251282,-2.0347595
-9.50556,-1.1786499,-2.776535,0.039520264,-1.3764,-2.104988
-13.225973,-5.028427,2.8400192,-0.7710457,0.043525696,-1.5723991
-10.503939,-0.22099686,0.59202003,0.44647217,-0.13217926,0.13097763
-14.0881,-4.891876,1.5544643,1.5777397,1.7415619,3.4801865
-7.393812,-6.1705437,0.7645054,0.45394897,-0.18224716,3.2735062
-4.657404,-6.9485245,0.031742096,0.31869888,0.16929626,-0.28879166
-10.927666,-4.109104,-0.7198868,-0.7859993,-0.4496765,-2.8005981
-9.416922,-2.9813614,1.0540771,-1.0342026,-0.92271805,-2.3638725
-9.699606,-1.6119595,-0.7366562,-1.2547684,-0.6478119,-1.2261963
-12.536631,-2.1027641,0.8193054,-0.6507492,-0.82992554,-0.3207016
-10.630907,-0.11798477,-0.75821686,1.3327408,0.6017494,0.8010864
-11.6508465,-4.894272,0.4770298,0.70215225,1.4730644,2.4916458
-6.821556,-5.9333763,1.3795834,0.9396744,0.5208397,2.4266243
-7.999607,-7.2791214,-1.7326393,-0.8360672,-0.089588165,-0.6508827
-10.973183,-4.6334476,-1.0217361,-1.0213852,-0.5498123,-1.8696022
-7.8391,-2.3159752,-0.58363533,-2.006855,-1.0791969,-1.6874886
-12.989105,-3.7237072,0.2641182,-1.1514282,0.48238754,-1.5766716
-13.494284,-1.9422569,1.8440361,0.7905388,0.026435852,-0.21736145
-12.258738,-4.192951,0.77648354,1.9750786,1.8044472,2.6151466
-7.961277,-6.541567,0.6231632,1.5756035,1.0033607,3.0242348
-6.7209396,-6.388546,0.50577736,0.31442642,0.33432007,0.9139061
-8.308344,-4.9038544,0.24255753,-1.6968346,-0.27397156,-1.9579887
-8.6605015,-3.055626,0.014972687,-1.5562439,-0.65208435,-2.2307587
-9.934078,-1.2241669,-0.35125923,-0.5303192,-0.07997513,-1.6469002
-13.554174,-1.5808163,-2.424677,-0.25447845,-0.4199028,-1.2411499
-11.629286,0.19075203,-1.7565956,2.1243477,0.51122665,0.82551956
-11.009117,-5.0188446,3.620695,0.12376785,1.3932228,2.947464
-6.8838425,-4.5496006,-0.17907333,-0.07116318,-0.15033722,1.9802856
-8.653315,-5.536001,-0.07606125,0.06729126,0.045661926,-0.7510185
-9.725658,-1.7724667,-2.2210484,-0.7870674,-0.1353836,-1.579876
-7.8151436,-4.2696114,4.645426,-0.43766022,-1.3232613,-2.233963
-11.492735,-2.1842155,-2.3623905,-0.45475006,-0.32510757,-0.47410965
-10.795906,-4.8083286,3.7931805,-0.6847954,0.041389465,-0.4634285
-11.315458,-1.9111137,1.4370785,1.1516953,2.1761513,1.0822678
-8.543116,-4.429819,2.212963,0.9396744,2.6682854,2.4692154
-8.962051,-6.4864674,1.6478939,-0.19052505,-0.06729126,1.2857437
-6.4409504,-6.943733,-0.14313889,-0.87652206,-0.27917862,-0.8928108
-5.4162197,-3.8911018,-0.22668648,-1.3378143,-1.0079002,-1.5266037
-9.989178,-2.2321281,-1.9338722,-0.07757187,-0.50935745,-1.715126
-13.211599,-2.212963,0.46505165,-1.0213852,0.27463913,-0.34620285
-10.563829,0.5333271,-2.1949959,1.914463,0.63259125,-0.060749054
-12.144047,-1.7676754,1.4370785,0.89494705,1.7117882,1.9056511
-7.3530865,-5.756399,1.446661,0.42844772,0.7147026,2.5053978
-4.5232487,-8.258335,-0.38719368,-0.24166107,-0.93112946,-0.2141571
-10.520708,-3.460188,-4.656206,-0.0797081,-0.22697449,-2.1860313
-7.571089,-2.9047012,0.6543064,-0.8574295,-1.1996269,-1.4253998
-10.559038,-3.1921768,-1.0624619,-0.99054337,-0.5359268,-1.0567665
-11.811054,-3.9893227,0.24734879,-0.37584305,-0.18758774,-0.99601746
-14.174343,-2.212963,0.24255753,0.62231064,2.056923,1.7554474
-10.977974,-5.7803555,2.1027641,-0.3066826,-0.3782463,3.8892746
-6.1202354,-6.740404,0.5177555,0.8970833,0.69547653,1.9152641
-8.914139,-5.993267,-2.0943794,0.15674591,-0.6989479,-2.182827
-10.709663,-3.9078712,-1.4718151,-3.2074165,-1.1314011,-0.8896065
-9.651693,0.0041923523,-0.44948006,0.28238297,-0.08104324,-1.7513084
-13.249929,-2.411501,0.76929665,-1.6020393,-0.08424759,-0.96838
-11.203163,0.6791611,3.093956,0.319767,-1.5734673,0.7018852
-10.73362,-4.0803566,2.8663712,1.6992378,1.1886787,2.2242165
-8.454477,-4.1522255,1.7556973,1.7631912,-0.114154816,1.9664001
-6.8718643,-4.970932,0.44349098,1.3711929,0.38759232,-0.29413223
-11.102547,-2.0284996,-2.084797,-0.96918106,-0.25474548,-1.774807
-6.567919,-2.4282703,0.24495316,-1.6232681,-0.92271805,0.37704468
-6.7616653,-2.136303,1.4945736,-1.6563797,0.0797081,-0.96090317
-13.860516,-1.6766415,3.9989052,-1.4188576,0.011615753,-1.4008331
-11.581373,2.3839512,1.8464317,2.108326,0.49734116,-0.26102066
-8.279596,-3.52487,4.161808,1.6630554,0.94047546,2.2657394
-8.262827,-5.016449,2.212963,1.6864204,0.5080223,1.2900162
-7.6453533,-6.266369,-1.1918259,0.70322037,-0.07890701,0.38024902
-7.987629,-3.4482098,1.1594849,-0.5570221,-0.61697006,-0.95235825
-7.949299,-2.4282703,0.5656681,-0.95436096,-0.58172226,-1.9622612
-12.991501,-2.330349,0.47463417,-1.3889503,-0.3409958,-1.0556984
-11.289106,-1.7341366,1.061264,-0.39506912,-0.36769867,-0.067157745
-13.221182,-2.1794243,1.2026062,2.0251465,2.192173,1.853447
-7.882221,-5.2536163,3.1155167,0.8288574,0.14472961,3.025303
-6.682909,-6.247204,2.5720081,0.9535599,0.370636,0.44527054
-7.9516945,-4.8846893,1.7221584,-0.9308624,-0.5838585,-1.9111252
-8.732071,-2.8307362,-0.013774872,-1.0193825,-0.8641052,-1.3976288
-9.062668,-2.129116,-0.7606125,-0.4930687,-0.6126976,-1.222992
-13.152008,-2.5001392,1.0971985,-0.52711487,-0.09065628,-1.0248566
-11.655638,0.94986725,1.1211548,1.4978981,0.5313873,-0.039520264
-11.559813,-3.821928,2.1434898,0.690403,1.2675858,2.6044655
-6.8982162,-5.3350677,1.4251003,0.8609009,0.63259125,2.126217
-7.4896374,-6.9748764,0.42432594,0.15033722,-0.06942749,-0.6829262
-11.490339,-2.3351402,-1.5772228,-0.7731819,-0.8395386,-1.8567848
-7.137779,-2.2632713,1.0732422,-1.8502426,-1.0398102,-1.589489
-11.873341,-2.7852192,-1.349638,-1.0544968,-0.029907227,-0.93112946
-12.04343,-3.5320568,2.5001392,-0.7881355,-1.571331,-0.36008835
-10.865379,0.61717415,-0.53811836,2.0625305,1.395359,0.5922699
-10.252398,-4.676569,3.6230907,0.8193779,0.47491074,2.7430534
-6.879051,-7.0179977,0.8959656,1.2060356,0.8414078,1.9408989
-7.480055,-7.0826797,-0.7773819,-0.44513702,-0.64888,-1.612854
-10.159267,-3.7524548,-0.04970932,-1.6574478,-0.1695633,-0.9694481
-7.8031654,-2.56003,-1.2993298,-0.44193268,-0.8992195,-1.4286041
-11.128899,-5.5072536,1.3508358,-1.8427658,-0.5211067,-1.2059021
-12.898071,-0.24734879,0.57764626,1.4328766,0.8574295,-1.080265
-11.238798,-3.776411,2.6798115,1.4925575,2.2593307,2.6566696
-9.395361,-5.5264187,1.0468903,0.3985405,0.56129456,2.6812363
-8.327509,-5.629431,1.298132,0.80121994,0.47597885,0.658226
-6.1202354,-7.9181557,1.6359158,-1.8097878,-0.8395386,-1.9547844
-8.207727,-3.6446514,-1.0073624,-0.11175156,-0.9674454,-2.132759
-7.393812,-5.1697693,0.4937992,-1.7734718,-0.9918785,-1.2549019
-15.086479,-1.9206963,-1.8979378,-1.353836,-0.5136299,-0.35474777
-11.526274,2.4150944,2.7037678,0.8480835,0.301342,1.3570404
-10.92527,-3.2017593,1.492178,1.9900322,0.5345917,3.0796432
-9.306723,-5.3778896,0.41713905,1.1219215,1.0427475,2.4159431
-8.763214,-5.9573326,0.97502136,0.18545151,-0.6041527,-0.8074951
-9.79034,-2.2033806,-3.5931454,-1.4603806,-0.4496765,-1.0482216
-8.035542,-1.8012142,0.7357578,-0.41215897,-0.7245827,-1.8961716
-12.500696,-2.682207,-0.41833687,-1.218586,0.38331985,-0.6925392
-12.337793,-1.4538479,0.61837196,-0.6134987,-0.54553986,-0.81817627
-12.218012,0.5500965,-2.3504124,2.5120735,2.0036507,1.3549042
-10.33864,-3.8695412,2.4091053,0.5348587,0.6231117,2.8164864
-8.480829,-5.8998375,1.6263332,0.97385406,0.7082939,1.594696
-5.9836845,-6.8838425,-1.5484753,-0.12657166,-0.91630936,-1.1324692
-8.361048,-4.2959633,-0.90195465,-2.3583984,-0.6424713,-1.6864204
-9.35224,-2.3638878,1.6311245,-0.46850204,-0.83740234,-1.9292831
-12.582148,-3.4889355,0.9606476,-1.5263367,-0.9173775,-1.0589027
-12.790268,0.8756027,0.39078712,1.3924217,0.4855919,0.09372711
-11.126503,-4.154621,1.8847618,1.167717,1.6701317,2.6769638
-7.709736,-5.3566284,1.7269497,0.36876678,0.26836395,2.8079414
-5.90942,-6.807482,2.8687668,0.8033562,0.10641098,-0.3271103
-11.727207,-1.7892361,-3.5164852,0.34740448,-0.810833,-2.3702812
-7.427351,-3.90308,2.4162922,-1.9161987,-0.98867416,-1.7641258
-9.206106,-2.265667,0.4363041,-0.9916115,-0.59453964,-1.1558342
-14.6411915,-4.611887,-2.216257,0.41776657,-0.0769043,-0.18651962
-9.685232,-0.59202003,-3.8395958,1.6971016,1.3921547,0.71790695
-9.759197,-4.0108833,2.5264912,1.5969658,1.867199,0.64661026
-7.240492,-6.4529285,3.0268784,-0.76890945,1.070385,2.1933746
-6.644579,-9.350143,2.9861526,-1.0641098,-0.7213783,-0.83206177
-7.3794384,-6.838625,1.3795834,-1.6009712,-1.5522385,-1.6320801
-9.838253,-3.1107254,-1.4742107,-0.3514099,-1.098423,-2.1103287
-14.059353,-4.6286564,1.2888489,-0.68906784,-0.25794983,-0.8363342
-12.124882,0.4518757,-2.7861176,1.8761444,1.2994957,0.07770538
-12.241968,-6.6805134,1.6311245,0.83740234,3.1455994,2.8569412
-5.4114285,-7.472868,2.6223164,-0.9554291,0.5878639,2.373352
-7.5016155,-6.735613,2.1578636,1.3988304,-0.0097465515,-0.5571556
-8.521555,-6.625414,-1.4071331,-0.45261383,-1.5235329,-1.5691948
-9.261206,-4.4992924,0.09163284,-1.5167236,-2.5694847,-2.748394
-14.763069,-1.8943443,1.1762543,-0.11909485,0.07329941,-2.4235535
-14.779839,-5.782751,1.5975857,-0.1937294,-1.2315369,2.4351692
-9.522329,-7.5926495,2.8783493,0.39747238,1.468792,3.3522797
-8.7153015,-4.5567875,2.4833698,0.8480835,0.2640915,2.8378487
-4.597513,-6.1058617,0.29286575,0.384655,0.83393097,0.3855896
-12.428827,-6.8958206,-4.3040485,0.4411316,-0.319767,-2.1242142
-10.218859,-1.8587093,-2.8891296,-1.9993782,-0.9706497,-1.0653114
-6.2493,-2.5648212,0.59202003,-1.6765404,-0.14713287,-0.926857
-12.002705,-2.754076,1.1786499,-0.43872833,-0.011882782,-1.1014938
-12.814224,-0.9151306,-0.35125923,1.3956261,0.02122879,-0.2717018
-11.791889,-3.5847607,0.4698429,2.693119,1.673336,2.5182152
-8.121784,-5.5479794,0.49140358,0.5114937,0.6199074,2.6737595
-7.884617,-6.206478,1.5472775,0.59560776,0.38331985,-0.23124695
-9.931683,-3.8743324,-0.7366562,-0.09145737,-0.6627655,-2.155056
-7.15934,-2.5360737,-0.29136848,-0.90215683,-1.2103081,-1.8088531
-10.01553,-3.2185287,-2.1183357,-1.158905,-0.700016,-1.2208557
-12.433619,-2.5049305,-0.60998726,-0.31736374,-0.10240555,-0.33138275
-12.898071,0.14074326,-2.288126,2.1136665,1.8214035,0.98960876
-10.43207,-4.4394016,1.55686,0.51042557,0.7572937,2.948532
-6.6897964,-5.981289,1.2241669,0.6638336,0.97665787,1.2014961
-8.413752,-7.2144394,0.25932693,-0.5303192,-0.5189705,-1.1143112
-9.483999,-3.6182995,-0.47822762,-0.07436752,-1.0025597,-1.3443565
-7.8079567,-2.385149,-2.8364258,0.34740448,-0.861969,-1.4296722
-13.800625,-3.6566296,-1.1630783,-0.71043015,-0.39533615,-0.6264496
-9.347448,-2.1578636,1.0277252,0.73833466,0.13298035,-0.5049515
-13.015457,-2.8759537,-1.220274,1.6193962,2.8952599,1.2900162
-9.440878,-4.760416,2.155468,-0.21829605,0.6134987,2.6620102
-4.683756,-8.952469,-0.31532478,-0.21936417,0.16716003,0.8584976
-10.501543,-4.913437,0.6543064,-0.0935936,-1.4713287,-1.5009689
-8.226892,-5.0643616,1.5784206,-1.6286087,-1.5841484,-2.8134155
-11.037865,-0.8052311,-2.70257,0.42844772,0.08825302,-1.4115143
-13.343359,-0.74534035,0.053302765,-0.13084412,-0.21108627,-0.97478867
-13.829372,-0.27130508,-0.82050323,1.3508987,1.5093803,1.9546509
-14.492662,-5.5671444,1.5784206,-0.90215683,1.2121773,3.8711166
-7.0587234,-6.807482,2.6295033,1.2954903,0.7348633,2.6247597
-5.112274,-10.539873,-2.566019,-2.1346283,-1.9900322,-2.5865746
-12.447992,-4.317524,2.734911,-1.0245895,-0.88747025,-2.7644157
-11.219633,-2.3614922,-0.6842518,-0.35247803,-0.84381104,-2.488575
-13.982693,-3.2352982,-1.8715858,-0.5942726,0.6869316,-2.2956467
-15.074501,-0.2808876,1.0804291,0.9056282,0.06916046,0.94594955
-17.442282,-7.9253426,-2.3815556,1.8143272,3.092327,4.348297
-7.1497574,-8.263126,0.9199219,-1.3634491,-0.4847908,3.560028
-4.3124332,-7.53755,0.19464493,1.181469,0.671978,-0.6082916
-9.9580345,-5.069153,-2.4869633,-0.5420685,-0.23338318,-1.7076492
-11.590956,-3.589552,-1.41432,-1.7159271,-1.5565109,-3.309822
-9.723263,-0.52973366,-2.2474003,-0.7637024,0.05634308,-1.5925598
-12.807037,-0.48661232,-0.54530525,-1.1769295,0.13084412,-0.7340622
-17.257818,2.3743687,-2.7549744,2.3330307,0.7998848,2.474556
-13.898846,-6.278347,-2.4582157,2.0923042,1.1428833,4.9704742
-5.9309807,-5.4641323,0.1443367,0.60842514,0.56129456,2.3019218
-8.595819,-7.041954,1.5400906,-0.6518173,-0.55942535,-1.7833519
-12.725586,-1.5472775,-4.220501,-1.1514282,-0.6201744,-2.6398468
-10.867775,-1.125946,-2.3024998,-2.293377,-0.834198,-2.8059387
-16.953873,-1.3223877,-0.3416767,-0.41749954,0.41749954,-2.6845741
-12.814224,2.11594,0.15391922,0.5626297,-1.3147163,1.4092445
-13.015457,-5.2919464,2.5217,3.4963417,0.42390823,3.0550766
-8.607798,-3.5967388,-0.06887436,1.6864204,0.8084297,2.5053978
-6.3690815,-5.2200775,2.071621,-0.20441055,0.32056808,0.16822815
-11.914066,-1.1546936,-2.1902046,1.0228539,-0.6702423,-1.8173981
-6.050762,-3.994114,3.0771866,-2.8430557,-1.0440826,-1.7854881
-12.483927,-3.5847607,-0.26262093,-0.97452164,0.19266129,-2.1912384
-15.005028,-0.3455696,0.4363041,-0.82645416,-0.2909279,-1.1388779
-12.194355,0.25064278,0.7597141,2.182827,1.6063118,2.1996498
-11.059425,-4.657404,1.0564728,0.5327225,0.8137703,3.4365273
-8.775192,-6.656557,2.0117302,0.5476761,1.070385,1.3655853
-4.540018,-9.017151,6.385851,-2.0175362,0.38866043,-1.8003082
-8.902161,-0.683054,-4.6681843,-1.0587692,-1.8057823,-3.4856606
-10.704872,-0.7501316,-3.2029572,-1.5359497,-0.50188065,-0.112953186
-13.549383,0.12397385,2.7301197,-0.6081581,0.107479095,-0.7276535
-10.429674,3.0328674,0.47463417,2.3426437,0.6081581,0.51122665
-15.893208,-2.2704582,1.0684509,0.8992195,1.45504,3.365097
-7.2955914,-5.7012997,1.190628,-0.20547867,-0.7554245,2.9827118
-8.942886,-7.1090317,-2.443842,-0.7870674,0.2874565,-2.6003265
-12.371332,-3.2903976,2.155468,-1.6232681,0.34072876,-2.2872353
-9.65888,-0.7429447,0.22818375,0.08010864,-0.027770996,-1.9911003
-13.884472,-1.9326744,0.08684158,-1.9450378,-0.40922165,-0.83206177
-11.75835,-2.277645,2.1195335,0.04272461,-0.1695633,-0.025634766
-10.690798,-0.8911743,1.0995941,2.2628021,1.5658569,2.0633316
-12.768707,-4.683756,3.3667583,0.9631729,-0.11949539,3.3885956
-4.5639744,-8.03075,-0.9043503,0.75756073,0.27036667,1.8012428
-15.151161,-0.48900795,-3.7629356,-0.6986809,-0.52324295,-0.7862663
-6.0938835,-1.7676754,4.8319855,-2.9538727,0.39827347,-1.1346054
-11.260359,-0.31682205,-0.5572834,0.20788193,1.631813,-2.7228928
-12.900467,0.87081146,3.0196915,-2.9932594,-0.40815353,-0.70415497
-10.549456,5.747715,3.5871563,2.242508,0.09679794,0.36849976
-14.231838,-1.6478939,1.7341366,3.643341,-0.2494049,3.2084846
-9.9580345,-2.8307362,0.9055481,1.269989,0.49200058,3.0903244
-4.0564003,-6.9293594,-1.8428383,1.3179207,-0.7554245,-1.1601067
-10.539873,-3.8815193,-3.5835629,-1.7436981,-0.6702423,-2.002716
-9.970013,-1.8655968,0.43390846,-2.0824242,-0.66490173,-3.0723
-13.568548,-2.1123466,-0.43510628,-2.4106026,0.07116318,-1.6320801
-13.961132,0.47822762,3.2329025,-0.77638626,-0.10347366,-1.1707878
-16.101627,-1.5784206,3.6159039,2.6207542,-0.17383575,3.4534836
-11.212746,-4.9541626,-0.8037338,2.9190254,0.87652206,3.6729813
-7.5351543,-6.6996784,-0.200634,0.1269722,0.5996132,1.3229942
-10.946831,-3.8363018,1.281662,-0.0030708313,-0.5476761,-2.510872
-10.096981,-2.0117302,-0.2841816,-1.6606522,-1.1324692,-2.6216888
-12.086552,1.3256817,-3.1286926,-0.80308914,-0.6627655,-1.54356
-13.882076,-0.022159576,-0.9139328,-0.9937477,-0.25474548,-0.6551552
-13.85812,3.1239014,-1.4622326,2.2084618,1.3814735,1.0641098
-11.119316,-3.3907146,0.0964241,1.9176674,1.5796089,3.5920715
-6.699379,-4.1642036,0.7597141,-0.030708313,0.9723854,1.9963074
-7.973255,-6.541567,1.4730129,-0.8627701,-0.31869888,-1.3274002
-13.3529415,0.15511703,-2.611536,-0.20441055,-0.9833336,-2.1338272
-6.5703144,-0.6854496,-0.83008575,-2.8216934,-2.2275543,-0.98012924
-12.859741,-1.5880032,0.52254677,-1.0534286,0.6092262,-1.3571739
-13.5278225,0.5093708,1.7748623,0.14820099,0.6635666,-0.6508827
-13.958736,-2.6606464,3.5128918,3.8318634,2.2688103,0.76904297
-11.183998,-4.899063,1.6742458,-0.17557144,0.7295227,3.8434792
-4.422632,-6.8601856,1.7197628,0.10026932,0.6709099,1.8461037
-9.787945,-6.4529285,1.8632011,-0.09679794,-0.3623581,-2.9668236
-10.209576,-4.173786,-0.34646797,0.55088043,-1.2667847,-2.6888466
-8.720093,-3.3047714,-0.85404205,-1.316452,-1.6630554,-1.4850807
-13.185547,-4.56637,0.08205032,-1.631813,-0.5359268,-0.27383804
-12.36175,0.08324814,-0.85404205,1.098423,0.5857277,0.7435417
-11.126503,-3.6230907,0.45786476,1.4478302,1.7212677,3.304348
-8.150532,-6.1010704,0.3812046,1.770668,1.4443588,2.033558
-9.452856,-8.74914,1.7077847,-1.6073799,-0.16849518,-0.33245087
-8.981216,-5.009262,-2.7169437,-0.19906998,-1.4957619,-2.2040558
-9.732845,-3.2185287,-1.0025711,-1.0917473,-1.1623764,-2.521553
-12.888489,-1.2744751,-0.99059296,-1.2036324,-1.0196495,-1.1068344
-12.797455,-2.9957352,-0.945076,-0.10000229,-0.17063141,0.12243271
-15.172722,-5.490484,1.2097931,1.3423538,1.6585159,3.1819153
-8.521555,-7.2647476,2.129116,0.33779144,-0.46676636,3.7602997
-3.2421856,-7.6070232,-1.0576706,-0.20868301,0.82538605,0.9799957
-12.316233,-9.371704,-2.3863468,1.8164635,0.006275177,-3.734932
-10.542269,-4.631052,1.2313538,-2.6162148,-1.269989,-1.9068527
-8.428125,-1.3891659,-2.5420628,-0.81056595,-0.5337906,-0.9332657
-12.304255,-4.2624245,1.2265625,-1.316452,-0.1353836,-0.13431549
-13.331381,-0.08444595,-0.68185616,2.067871,0.7369995,0.8852005
-9.364218,-4.0755653,0.8887787,2.4992561,1.1621094,2.762146
-7.583067,-5.4234066,-0.025753021,1.4882851,1.5690613,1.941967
-9.333075,-6.872164,0.9702301,-1.079998,-0.58813095,-0.0500679
-11.787098,-0.8148136,-7.6369686,1.1176491,-0.9769249,-1.6235352
-5.4042416,-3.1346817,0.23776627,-1.7702675,-1.0483551,-1.9207382
-13.568548,-4.463358,-0.9402847,-1.631813,-0.15781403,-1.6661263
-12.721094,-1.89674,1.5209255,0.116291046,-0.09279251,-1.8728065
-13.788647,-2.277645,1.1475067,1.4244652,1.6989708,2.5928497
-9.055481,-5.409033,0.6686802,0.7618332,0.059547424,3.3064842
-8.25564,-7.7268047,1.3029232,0.0491333,0.6124306,1.0982895
-7.6621227,-6.2040825,1.6454983,-0.21722794,-0.2696991,-2.2403717
-6.515215,-3.8530712,-1.4023418,-1.4390182,-0.6627655,-1.622467
-9.924496,-1.5808163,-1.4670238,-0.7774544,-0.66596985,-1.2954903
-12.253946,-4.403467,1.0756378,-1.0267258,-0.30908585,-1.293354
-13.985088,1.608366,0.2641182,2.0347595,1.515789,0.8563614
-10.611742,-5.2392426,0.9678345,0.43045044,0.24913788,3.9616394
-8.454477,-7.4824505,0.012577057,0.77985764,1.4443588,2.2092628
-7.4177685,-9.869696,6.0555534,1.9324875,-1.1048317,-0.713768
-9.232458,-3.1801987,-8.546709,-2.766285,-0.6435394,-1.0056305
-8.827896,-1.980587,2.2249413,-0.9426117,-1.3232613,-2.248783
-13.003479,-3.5679913,1.125946,-2.1250153,-0.73726654,-0.94488144
-11.344206,-1.7245541,1.2577057,1.0771942,0.50481796,-0.9844017
-13.599691,-1.7437191,-0.37521553,3.3258438,2.9729652,1.6511726
-8.516764,-5.921398,1.4298916,0.47424316,0.648613,3.0796432
-1.8871574,-16.671488,4.872711,-2.869625,0.6347275,-1.2484932
-13.118469,-5.557562,1.1403198,0.40388107,-1.1112404,-2.6270294
-7.2620525,-3.6326733,-2.5157108,-2.4106026,-1.3221931,-1.4733315
-8.423334,-1.25531,-2.1518745,-1.1653137,-0.60842514,-1.0514259
-14.040188,-2.5193043,-1.6155529,-0.1511383,-0.37931442,0.23645401
-13.846142,-1.89674,0.2641182,2.3852348,0.55488586,1.6000366
-10.094585,-4.0540047,0.3165226,1.524601,1.3772011,3.6857986
-7.1114273,-6.2352257,-0.2769947,1.4339447,1.5690613,1.881218
-7.688175,-6.4409504,1.3196926,-1.3836098,-0.6339264,-1.437149
-9.775967,-5.7731686,-1.8763771,-0.061683655,-0.64460754,-2.1071243
-10.918083,-2.5935688,-3.6626186,-1.6669273,-1.4893532,-3.2544136
-13.261908,-2.6271076,-2.6259098,0.25901794,0.4855919,-1.9920349
-17.990582,1.304121,-1.9314766,1.6598511,0.98199844,0.96076965
-18.73742,-6.2759514,-1.1558914,0.06729126,2.1485138,5.202656
-9.438482,-7.91576,0.9366913,0.1695633,-0.032043457,4.323864
-2.5696125,-9.383383,0.72857094,-0.44086456,0.18091202,-0.38145065
-14.454332,-6.323864,-2.7933044,0.74581146,-1.1176491,-3.859501
-14.162365,-5.3778896,2.4162922,-3.8177109,-0.78092575,-4.934292
-10.288332,-0.5321293,-2.1638527,-0.25234222,-0.55088043,-1.1164474
-15.43115,-0.76210976,0.48182106,-1.4858818,-0.32190323,-0.5337906
-15.550932,-2.193798,-0.14313889,2.1380997,0.20227432,3.40662
-12.570169,-6.103466,-1.5724316,1.8622589,0.9192467,3.2489395
-5.7105827,-6.9341507,0.52973366,-0.124435425,0.27784348,3.0913925
-8.801544,-6.91259,2.090786,0.010814667,-1.2635803,-2.0219421
-13.362524,-5.4162197,-4.7996445,-2.3817635,-0.030975342,-3.0190277
-12.196751,-1.7796535,-1.2969341,-0.96918106,-0.8673096,-3.2000732
-14.97628,-3.6063213,1.1834412,-1.4347458,-0.1417923,-1.8993759
-18.579607,3.3655605,0.36203957,1.3295364,0.047798157,-0.21736145
-16.470255,-12.469553,1.9638176,3.8628387,1.4294052,5.4987907
-5.703396,-7.5591106,-0.43510628,0.37410736,0.65502167,3.189392
-5.4042416,-8.844965,3.2903976,0.19720078,1.1460876,-0.44326782
-10.621325,-7.12101,-2.8388214,0.04486084,-1.2486267,-2.938118
-9.529516,-6.553545,2.6127338,-2.4947166,-1.6256714,-3.725319
-10.726433,-2.3662834,-2.7238312,-1.2727928,-0.5040169,-1.7140579
-14.969093,-1.870388,-0.51416206,-0.1862526,-0.4411316,-0.6572914
-16.364847,-3.5488262,0.09881973,1.1155128,1.6446304,3.3246422
-10.944435,-8.373325,1.3029232,0.57224274,0.09893417,4.5230675
-4.8391724,-6.9628983,0.16350174,0.5285835,0.5484772,2.40633
-8.543116,-6.651766,-1.8596077,-0.98199844,-1.0834694,-1.691761
-14.875664,1.3400555,-0.7390518,0.16529083,0.7434082,-2.3191452
-9.301931,-1.2337494,1.427496,-1.1268616,-0.5774498,-2.317009
-14.1719475,-2.3638878,1.106781,-1.4262009,-0.10667801,-1.7545128
-14.801399,-0.25214005,0.8076267,1.2678528,0.658226,-0.2855873
-12.842972,-4.147434,1.5927944,1.6278076,0.8307266,3.5217094
-7.5279675,-4.9349976,0.747736,1.6395569,1.0874748,2.6301003
-7.8678474,-5.217682,2.1602592,1.3083076,0.7487488,-0.13965607
-7.523176,-7.1545486,-1.7925301,-1.1993599,-0.8970833,-0.94488144
-8.205332,-2.7948017,-2.2114658,-1.3005638,-1.4159203,-1.4562416
-8.526346,-2.818758,-1.220274,-2.0792198,-0.6989479,-1.6533089
-13.40325,-2.7564716,0.041324615,-1.4529037,-0.3857231,-1.009903
-10.503939,-3.9773445,1.8464317,0.11842728,-0.2280426,-0.690403
-12.938797,-0.9941864,-1.220274,3.0116844,2.1027184,1.7395592
-9.744823,-4.9877014,0.85284424,0.46783447,0.41322708,3.261757
-8.025959,-6.747591,1.1451111,0.73192596,1.1386108,1.1462212
-7.0922623,-6.7691517,1.5736294,-1.2727928,-0.87999344,-1.9825554
-9.280371,-3.4937267,-1.395155,-0.20868301,-0.8001518,-1.7705345
-7.6429577,-0.9295044,-1.6778393,-1.0342026,-1.2017632,-1.2187195
-13.747921,-4.1785774,-0.49499702,-0.7647705,-0.46569824,-0.8000183
-11.193581,-0.2569313,-0.5716572,0.546608,-0.3782463,-0.36222458
-13.513449,-2.9310532,-0.5740528,0.80762863,2.021675,2.6439857
-7.7241096,-5.0380096,1.7916317,0.19292831,0.018024445,2.9219627
-6.8982162,-6.766756,0.64232826,0.3345871,0.11175156,0.6199074
-10.6021595,-4.305546,1.0061646,-0.36209106,-0.2057457,-2.7804375
-8.706018,-2.1243248,-0.51176643,-1.0448837,-1.0419464,-2.1944427
-8.859039,-0.5393162,-2.0105324,-0.6134987,-0.1417923,-1.3976288
-13.314611,-2.5312824,0.026950836,-0.5942726,-0.36128998,-0.11508942
-13.173569,-0.46505165,-1.9889717,2.5354385,1.5977669,1.0737228
-11.360975,-3.7883892,1.0900116,-0.81056595,0.5709076,3.7059593
-5.825573,-4.970932,1.2505188,1.0558319,0.64647675,1.7149925
-11.6700115,-4.6597996,-1.4957714,0.43792725,-0.3495407,-0.9396744
-9.627737,-4.2504463,-2.5420628,-0.8307266,-0.7755852,-1.8717384
-8.930908,-1.0564728,-1.8356514,-0.19693375,-0.65956116,-2.4479866
-12.273111,-3.3478928,-0.83008575,-1.4379501,-0.12163162,-0.95983505
-13.487097,-1.446661,0.41953468,0.33351898,-0.08104324,-0.73085785
-13.357733,-2.8067799,0.9055481,1.4499664,1.190815,3.0892563
-8.696436,-5.5144405,0.6686802,0.7053566,0.6293869,3.138256
-7.3458996,-6.0411797,1.9063225,0.17063141,0.52497864,0.53792953
-7.6429577,-6.0244102,0.46505165,-0.555954,-0.58919907,-2.3574638
-9.345053,-2.342327,-1.543684,-0.18945694,-0.7841301,-1.9526482
-8.152927,-1.89674,-2.867569,-0.7849312,-0.8683777,-1.1004257
-12.168003,-3.52487,1.152298,-1.149292,-0.3261757,-1.0653114
-13.2882595,1.4502544,-0.20302963,0.92378616,0.7945442,0.6423378
-12.275507,-4.245655,1.4059353,0.07797241,0.07329941,3.6143684
-6.488863,-5.6965084,0.168293,0.68826675,0.13725281,2.3797607
-7.3578777,-5.2799683,0.3883915,0.30908585,-0.0778389,-1.3412857
-12.570169,-2.2632713,-0.8109207,-0.36849976,-0.09599686,-2.674961
-8.976425,-1.2145844,0.08923721,-1.0512924,-1.0791969,-1.654377
-10.851006,-2.670229,-0.23147774,-1.4848137,-0.28985977,-0.78733444
-12.151234,-3.6230907,0.1203804,-0.49627304,-0.027770996,-0.54647446
-12.378519,-0.7429447,0.42432594,1.4585114,1.3836098,1.7352867
-9.96043,-4.599909,1.6239376,1.0643768,0.5313873,3.3374596
-8.926117,-5.706091,0.9079437,0.6349945,0.71790695,1.5679932
-7.571089,-6.800295,-2.2977085,-0.50268173,-0.9066963,-0.6977463
-9.445669,-2.349514,-0.87081146,-0.7423401,-0.48585892,-1.5873528
-8.691645,-1.9662132,-0.6842518,-0.9554291,-0.85876465,-1.589489
-11.495131,-2.533678,-1.479002,-1.4028358,-0.4336548,-0.84581375
-12.751938,-3.4050884,0.29047012,-0.76890945,-0.06729126,-0.42190552
-9.914913,-2.1243248,-0.22189522,1.9112587,1.2685204,1.914196
-10.044277,-4.3127327,1.6239376,-0.21402359,0.39827347,2.6620102
-8.260431,-5.828268,1.125946,0.7851982,0.36102295,1.362381
-6.6206226,-7.4297466,-1.0888138,-1.4411545,-0.19292831,-0.55181503
-8.406565,-4.513666,-0.0017967224,-0.28959274,-0.38038254,-1.9292831
-9.747219,-1.4634304,-0.97382355,-0.5484772,-0.63926697,-2.1028519
-13.089722,-2.5097218,-0.011379242,-1.1833382,-0.4837227,-0.85329056
-11.437635,-1.3104095,1.1666718,0.22176743,-0.11095047,0.2576828
-10.111355,-2.4977436,-0.025753021,2.1200752,1.4017677,1.4209938
-9.522329,-4.2767982,1.9111137,0.58919907,0.5228424,2.5843048
-7.2931957,-7.087471,0.055698395,0.3409958,-0.44433594,0.61029434
-8.346674,-4.978119,0.9702301,-0.89468,0.11602402,-1.9025803
-8.281992,-2.1602592,-0.7630081,-0.4504776,-0.85983276,-1.723671
-9.823879,-2.7516804,-1.2705822,-1.0352707,-0.46463013,-1.2816048
-12.424036,-2.2321281,-0.030544281,-0.5857277,-0.5253792,-0.8980179
-13.096909,0.7845688,-0.77259064,1.3072395,1.0885429,1.390152
-10.721642,-5.4162197,0.85523987,0.17597198,0.29813766,3.5313225
-5.6629696,-5.0188446,0.73815346,0.59560776,0.5782509,1.6894913
-8.724884,-4.702921,1.336462,0.18117905,-0.10133743,-1.4435577
-12.079365,-1.7341366,-0.4926014,-0.45154572,-0.39319992,-1.9590569
-8.172092,-1.6359158,0.27130508,-0.66036224,-0.85128784,-1.3103104
-10.276354,-1.9470482,-0.48301888,-0.69013596,-0.4060173,-0.8928108
-12.160816,-2.4019184,-0.99059296,-0.37477493,-0.14072418,-0.005340576
-13.767086,-1.1499023,-0.67227364,1.3892174,1.8001747,1.492424
-10.082607,-4.482523,1.281662,-0.061683655,0.3514099,3.1552124
-5.5743313,-5.4186153,1.0636597,0.35701752,0.5580902,1.6585159
-9.210897,-5.5216274,-0.40635872,0.11949539,-0.4486084,-1.8471718
-13.338568,-2.0045433,-0.5956135,-0.7774544,-0.71603775,-2.521553
-8.44729,-1.0924072,-1.8524208,-0.87545395,-1.4840126,-0.875721
-11.710438,-2.174633,0.82888794,-0.7487488,-0.2632904,-0.7510185
-12.397684,-2.89991,-0.40875435,-0.13832092,-0.27397156,0.49533844
-12.924423,-3.2329025,0.48900795,1.4360809,1.5870857,2.1379662
-8.758423,-4.9302063,1.8392448,-0.08611679,-0.089588165,2.9869843
-5.811199,-5.801916,1.4730129,0.41028976,0.157547,0.7925415
-9.280371,-6.3023033,-1.9434547,-0.74661255,-0.11735916,-2.0581245
-11.827824,-1.7365322,-1.1702652,-0.39934158,-0.4336548,-1.7780113
-9.031525,-1.0468903,-1.2466259,-0.20547867,-0.477314,-1.3412857
-11.124107,-1.7892361,-0.24345589,-0.9948158,-0.4922676,-0.17156601
-12.601313,-3.2592545,1.281662,0.93860626,0.48131943,0.009479523
-12.304255,-3.620695,0.87919617,1.7674637,1.5147209,2.3361015
-7.1689224,-5.301529,1.8296623,0.55088043,0.42804718,2.6333046
-5.741726,-6.0890923,1.8368492,-0.28104782,0.09893417,-0.065021515
-9.9772,-5.2057037,-0.98340607,0.28879166,-0.21108627,-2.572689
-9.280371,-4.135456,0.8432617,-1.2121773,-1.0697174,-1.5852165
-9.158493,-0.8720093,-2.611536,-0.38438797,-0.3409958,-1.1900139
-10.726433,-3.5272655,2.052456,-0.8221817,-0.13751984,-0.4283142
-12.148838,-0.6543064,0.28328323,1.3828087,0.99054337,0.35354614
-11.375349,-6.007641,1.667059,1.7993736,1.2770653,2.9454613
-5.722561,-6.5247974,2.6750202,0.5711746,-0.5966759,1.8258095
-4.9349976,-7.389021,-0.38479805,-0.17343521,-0.3698349,-0.7777214
-11.555021,-8.600611,2.8951187,-3.5844612,-0.3996086,-3.453617
-10.106564,-2.7876148,2.5169086,-0.9926796,-1.2614441,-1.723671
-8.863831,-1.2840576,0.8264923,-1.0714531,-0.6775856,-0.35261154
-11.791889,-2.9478226,1.0397034,-0.0073432922,-0.8842659,0.9427452
-12.225199,-1.4778042,0.912735,2.8060722,1.9833565,0.47611237
-12.275507,-3.2376938,2.6941853,1.3275337,2.1943092,1.8450356
-8.708115,-4.7316685,2.8951187,0.55301666,0.5313873,2.2732162
-5.902233,-5.2512207,-0.6794605,-0.222435,-1.1367416,0.4985428
-7.2285137,-5.7204647,-0.48301888,-0.80949783,-0.12269974,-1.798172
-9.917309,-4.6214695,0.8193054,-0.89040756,-0.114154816,-2.2999191
-10.67882,-1.2768707,-2.2282352,-0.5878639,-0.4049492,-1.7108536
-12.144047,-2.5911732,0.6279545,-0.7136345,0.080776215,-0.57317734
-11.631681,-0.6135807,1.4322872,1.2901497,0.24059296,0.56663513
-13.446371,-4.9733276,-0.53572273,1.7993736,1.362381,2.763214
-7.4872417,-5.7731686,1.8991356,0.8992195,-0.32403946,3.0955315
-5.1673737,-6.541567,-0.27220345,0.65208435,-0.020427704,-0.2344513
-9.910122,-4.3938847,-0.91632843,-0.89040756,-0.0992012,-2.877369
-9.177658,-3.4290447,1.8416405,-0.89681625,-0.6360626,-1.756649
-9.606176,-2.018917,-1.1726608,-0.70508957,-0.13645172,-1.3402176
-12.945984,-1.5856075,0.92471313,-0.73272705,-0.7053566,-0.4847908
-11.959583,0.18356514,-0.4207325,1.4818764,0.52711487,1.0172462
-11.377745,-4.3271065,0.4051609,1.7769432,1.9664001,2.228489
-7.6501446,-4.9661407,1.8060055,0.17169952,0.2874565,2.1443748
-7.0060196,-5.4234066,0.3572483,1.0739899,-0.14820099,-0.13324738
-8.279596,-3.948597,-1.3280773,-2.0143318,-1.1964226,-1.7172623
-8.811127,-3.326332,1.1187592,-1.5072441,-0.7267189,-1.9356918
-10.592577,-1.5975857,-0.11439133,-1.1141777,-0.0769043,-1.3507652
-11.504713,-2.5744038,2.3540058,-0.8552933,-0.44647217,-0.21842957
-11.088173,0.834877,0.072467804,1.8408966,0.31309128,-0.11508942
-13.570944,-4.4154453,1.8012142,1.386013,1.2984276,2.5021935
-7.49922,-5.6893215,2.0476646,0.7841301,-0.05126953,2.3893738
-7.2548656,-6.587084,1.25531,0.33885956,-0.2494049,-0.20454407
-8.040333,-3.3763409,-1.0049667,-0.15647888,-0.5626297,-2.0784187
-8.157719,-4.2169075,-0.5477009,-1.1535645,-0.3771782,-1.358242
-9.1489105,-3.5775738,-0.7438431,-1.1929512,-0.26542664,-1.9782829
-11.327436,-3.3502884,0.25453568,-0.3929329,0.064888,-0.5337906
-13.805416,0.65999603,0.333292,2.1870995,1.3964272,-0.23124695
-12.017078,-6.0483665,1.1594849,1.4467621,0.98840714,3.8604355
-5.928585,-6.4337635,-0.9307022,1.200695,0.7551575,2.077217
-5.9070244,-6.8673725,1.5329037,-0.46329498,0.19266129,-0.81069946
-8.222101,-3.7213116,-2.5899754,-0.5803871,-1.0280609,-1.4701271
-9.630133,-2.4546223,-0.5668659,-1.3697243,-0.6839943,-1.4530373
-9.910122,1.1867352,-2.9825592,-0.2799797,-0.027770996,0.07556915
-13.099304,-0.13235855,0.33089638,-1.1418152,-0.53699493,0.4932022
-10.714455,1.3328686,-1.9123116,2.5737572,0.45902252,-0.11508942
-13.154404,-0.56806374,-2.1255226,1.1527634,1.038475,1.9802856
-7.9133644,-4.6358433,-0.6794605,0.23338318,-0.14392853,2.762146
-5.622244,-4.2696114,-1.2681866,-0.94047546,-0.8747864,-1.0834694
-13.391272,-4.891876,-4.9745255,-0.034980774,0.9490204,-3.8297272
-11.909275,-1.0636597,1.0133514,-0.55274963,-1.9708061,-1.0621071
-5.2820644,-3.086769,-0.6147785,-0.9980202,-0.7139015,-0.31536102
-12.977127,-4.863428,3.2903976,-1.7351532,-0.49333572,-1.6299438
-12.534235,-0.28567886,-0.42312813,1.3423538,1.0119057,0.8852005
-8.981216,-3.4362316,1.9326744,1.0143089,1.6148567,1.8461037
-7.297987,-6.213665,2.0620384,0.9621048,1.3155174,1.7639923
-7.798374,-7.1952744,0.13954544,0.42844772,-0.1492691,0.5730438
-7.9972115,-4.5064793,-3.5164852,-0.9723854,-0.8555603,-1.2773323
-7.889408,-4.1378517,0.20422745,-1.9621277,-1.0089684,-2.2690773
-12.787872,-3.5727825,-0.82289886,-1.121521,-0.22390366,-1.1782646
-12.725586,-3.6590252,0.31891823,-0.12870789,-0.2855873,-0.032043457
-12.347376,-4.046818,2.3995228,1.7227364,1.1897469,2.6716232
-6.6969833,-5.9190025,-0.64113045,1.751442,0.39079666,2.947464
-7.7696266,-6.4936543,-0.3560505,-0.8627701,0.6869316,0.2076149
-6.5367756,-6.6733265,3.795576,-0.010547638,-1.1921501,-2.2498512
-8.603006,-3.6135082,0.13714981,-1.9236755,-0.75862885,-2.4640083
-11.365767,-2.4522266,0.48182106,-1.1099052,-0.09492874,-1.4125824
-11.988331,-2.3543053,-0.9067459,-0.09038925,-0.20147324,-0.24713516
-13.010666,0.1119957,-0.10480881,1.4989662,1.1929512,1.4177895
-10.709663,-5.7036953,-0.5980091,0.79481125,0.25875092,3.4087563
-5.665365,-5.260803,-0.3728199,0.089588165,0.24272919,1.9206047
-8.435312,-6.005245,0.13475418,-0.06702423,-0.13645172,-1.0066986
-12.522257,-2.0692253,-1.6754436,-0.74661255,-0.2558136,-1.9973755
-7.446516,-2.7780323,0.41713905,-1.9343567,-0.5401993,-1.8909645
-12.069782,-2.857088,1.7461147,-1.3707924,-0.19720078,-1.2805367
-11.045052,-1.0971985,-0.9307022,0.6328583,-0.45822144,-0.052204132
-14.2914295,0.9139328,-1.4167156,4.0460205,2.3423767,0.23324966
-11.914066,-5.98608,1.7676754,-0.6229782,0.19586563,3.6633682
-5.9573326,-6.8553944,0.66628456,1.6705322,1.6148567,1.5679932
-11.988331,-5.282364,0.5752506,-0.33859253,-0.38785934,-0.5081558
-9.4241085,-3.8386974,-2.3048954,-1.2068367,-0.9066963,-2.1892357
-8.322718,-0.14673233,-2.848404,-1.7458344,-1.4360809,-1.9292831
-14.071331,-2.9669876,-2.9106903,-0.53993225,0.7061577,-1.6342163
-13.068161,0.2841816,2.3135796,1.9825554,0.7284546,0.51122665
-12.642038,-4.305546,-1.0792313,1.7812157,0.69013596,3.23946
-6.28763,-5.4689236,0.10361099,0.48585892,-0.3634262,3.4472084
-5.1506042,-6.515215,0.5345249,-0.122299194,0.22777557,-1.2358093
-13.266699,0.28178596,-3.4062862,0.9248543,0.750885,-1.993103
-8.8901825,1.8572121,0.4458866,-1.8842888,-1.08881,-1.5394211
-8.392191,0.2841816,-2.1303139,-1.6478348,-0.07156372,-0.79681396
-12.244364,-0.9606476,0.029346466,-1.0682487,-0.08424759,-0.8917427
-12.811829,3.3128567,-1.2538128,3.142662,1.4092445,0.20547867
-11.054634,-3.1035385,-2.4318638,2.0283508,0.7731819,3.3725739
-6.867073,-5.0308228,0.08444595,-0.8925438,0.20441055,1.6501045
-10.542269,-4.044422,-2.314478,0.33779144,0.21188736,0.48892975
-9.371405,-1.022934,-1.5676403,-1.5881538,-0.4837227,-1.66399
-8.083454,-0.397974,-0.6938343,-0.91176987,-0.07583618,-1.9399643
-13.470327,-5.9890747E-4,-1.9218941,-1.1120415,-0.28772354,-0.8416748
-8.50239,-1.300827,0.59441566,-0.6219101,-0.8534241,-0.5060196
-12.6085,1.1699657,-0.2841816,2.5429153,1.3559723,1.2249947
-10.307497,-3.3550797,0.30454445,-0.4078865,-0.28238297,3.230915
-8.045124,-5.1362305,0.51296425,0.7053566,0.3514099,0.87345123
-7.9708595,-4.1642036,-0.66508675,-1.0395432,-0.1695633,-2.2530556
-9.108185,-1.106781,-0.7126999,-1.8566513,-0.4986763,-2.1370316
-8.591028,-1.7029934,-0.1599083,-0.95436096,0.37691116,-1.3954926
-13.477514,-0.12277603,0.27849197,-0.16609192,-0.0778389,-1.5191269
-14.978676,2.9178772,-2.3767643,2.5865746,1.0725212,0.6902695
-13.027435,-4.0228615,0.6710758,-0.049934387,-0.032043457,3.6825943
-6.1585655,-6.251995,-0.1287651,0.6777191,0.42804718,2.4734879
-9.16568,-6.7116566,-0.32011604,-0.41215897,-0.20254135,-1.1014938
-12.639643,-3.3739452,-2.0009499,-0.50268173,-0.20681381,-2.4256897
-9.862209,-0.16110611,-0.14074326,-0.8733177,-0.8544922,-2.0495796
-12.938797,-1.667059,-0.05689621,-1.0213852,-0.44540405,-0.87465286
-10.81028,-5.002075,3.0963516,-0.843544,-0.7564926,-0.3345871
-14.689104,-1.1403198,-1.2969341,1.9251442,2.056923,2.7419853
-7.702549,-5.5072536,1.59519,0.05340576,1.1790657,2.9955292
-5.98608,-6.304699,3.4937267,-0.23845673,1.1715889,0.5336571
0.33958054,-14.145596,-5.570738,-4.363117,-2.1380997,-3.1638908
-13.297842,1.5173321,0.20183182,-3.3927345,-2.7772331,-1.6885567
-8.591028,-0.46505165,1.511343,0.03845215,-1.0601044,-1.0621071
-12.395288,-0.69024086,1.8655968,-0.9713173,0.21402359,-0.68078995
-15.8093605,-0.572855,0.6447239,2.191372,1.4411545,2.044239
-9.366613,-5.0643616,1.7293453,2.0689392,0.33538818,3.2351875
-7.8486824,-5.725256,0.8959656,1.362648,1.3303375,1.4997673
-6.8191605,-7.4632854,0.7261753,-1.7809486,-0.85876465,-0.42617798
-10.468004,-3.7788067,-0.6531086,-0.93193054,-0.48158646,-3.2128906
-12.5438175,0.2674122,-0.23866463,-1.210041,-0.7074928,-2.2797585
-13.278677,-1.236145,0.5872288,-1.7117882,-0.7862663,-0.77344894
-14.1432,2.345621,1.5784206,1.7621231,0.80415726,0.31309128
-11.2364025,-4.26482,-0.13834763,2.9349136,1.7777443,3.0242348
-7.1042404,-4.9230194,1.7413235,0.23979187,0.7082939,2.1304893
-10.073025,-5.8306637,1.8560143,0.41028976,0.16929626,-0.6839943
-8.643732,-4.257633,-2.1542702,-0.52497864,-1.3189888,-1.5830803
-9.345053,-1.9542351,-0.9786148,-0.9297943,-0.9833336,-2.6867104
-12.574961,-3.4458141,0.27130508,-1.6467667,-0.24299622,-1.2709236
-13.328985,-2.1650505,0.92471313,-0.030708313,-0.0630188,-0.14593124
-10.932457,-1.6047726,1.0157471,1.8601227,1.3239288,2.2071266
-10.444048,-5.3182983,1.9087181,0.4049492,0.6357956,2.5522614
-8.6605015,-6.357403,1.381979,0.72885513,0.4153633,1.83115
-6.867073,-12.512674,4.3555546,-5.0993156,0.5878639,-1.4125824
-9.414526,-1.1403198,-4.560381,0.57224274,-0.07890701,-2.488575
-8.696436,-1.4849911,1.2505188,-1.283474,-0.064086914,-1.0045624
-12.103321,-1.4418697,1.530508,-0.76890945,-0.40067673,-0.43685913
-14.717852,0.60280037,0.2737007,2.9083443,1.9897652,0.71043015
-9.62055,-4.8966675,2.9358444,1.1463547,-0.30054092,2.9390526
-6.938942,-6.462511,1.1307373,1.2826729,1.3059044,1.8780136
-5.6581783,-7.3749466,2.0500603,-1.681881,-0.6839943,-0.8543587
-11.461592,-3.2209244,-0.5788441,0.79374313,-0.14392853,-2.5236893
-8.583841,-2.1842155,2.0165215,-0.7551575,-1.579876,-1.4253998
-12.012287,-4.8107243,1.197815,-1.6286087,-0.7980156,-0.0778389
-10.171246,-5.425802,4.494501,0.048065186,0.88933945,-1.8067169
-11.052238,-2.754076,3.544035,0.84487915,2.0186043,2.6140785
-8.320322,-5.710882,0.9558563,1.0196495,1.4209938,2.108059
-6.160961,-8.049915,3.8003674,-2.5788307,1.1758614,1.8598557
-11.825428,-6.759569,0.4530735,1.2156487,-1.1240578,-3.4238434
-8.411356,-0.9366913,-1.2562084,-1.9215393,-0.9993553,-1.9857597
-12.890884,-3.8147411,1.4849911,-1.4625168,0.07116318,-1.1281967
-12.000309,-3.4506054,2.2105675,0.4273796,0.33218384,-0.35902023
-13.865307,-3.1801987,3.0699997,1.5671921,2.3306274,2.5533295
-9.814297,-6.23283,2.2824364,0.9769249,0.13725281,3.7294579
-5.9693108,-7.0898666,0.63274574,0.48265457,0.65288544,0.8552933
-7.3674603,-4.6406345,3.0915604,-1.0097694,-0.88212967,-1.8514442
-8.708115,-3.5224743,-2.3001041,-2.6949883,-0.74474335,-2.4907112
-12.615686,-2.9478226,2.1027641,0.041656494,0.5016136,-2.4224854
-16.168705,-0.6998234,0.85284424,-0.60495377,0.04673004,0.18424988
-14.600466,-3.5775738,3.0244827,2.447052,1.4145851,3.0753708
-10.353014,-6.0819054,1.3891659,0.70962906,0.39186478,3.7283897
-6.587084,-5.9525414,2.327654,0.39533615,1.1247253,1.5008354
-7.441725,-6.1945,-0.0401268,0.04486084,-0.9428787,-2.3159409
-9.979595,-5.313507,0.09881973,-1.3420868,-0.9120369,-2.646122
-11.495131,-0.98939514,-1.330473,-0.47597885,-0.6052208,-2.1017838
-14.186321,-2.303997,1.4251003,-1.2408829,0.27143478,-1.5723991
-14.021023,0.8396683,0.37641335,1.8250084,0.61777115,1.594696
-11.763142,-6.350216,0.33808327,0.7554245,0.35354614,4.1332054
-6.4026203,-5.6366177,1.0756378,0.66490173,0.69547653,2.0782852
-7.7073402,-6.240017,2.2081718,-0.21722794,-0.25047302,-0.8618355
-11.571791,-3.4026928,-1.2370434,-1.0119057,-0.20254135,-1.9547844
-7.7432747,-3.0125046,-1.2825603,-0.9287262,-1.1431503,-2.1422386
-12.924423,-5.966915,0.43869972,-2.210331,0.5005455,-2.0794868
-15.388029,1.07444,1.1379242,1.2944221,0.34500122,0.26729584
-11.835011,-5.0643616,0.28567886,1.4723969,0.64113617,3.2638931
-7.1114273,-5.7492123,0.848053,0.5636978,0.24806976,2.812214
-6.8910294,-5.942959,1.9710045,0.5966759,0.47597885,0.1001358
-11.234007,-4.257633,0.019763947,-1.1183167,-1.158104,-2.2594643
-8.368235,-2.117138,-0.8276901,-1.3378143,-1.0004234,-2.1071243
-11.77512,-3.9390144,0.07965469,-1.0502243,0.27143478,-1.7897606
-13.838955,-1.980587,2.5887775,0.27290344,0.07436752,-0.29413223
-12.347376,-3.821928,2.5432606,1.8654633,1.3932228,2.4702835
-9.926891,-6.381359,2.155468,0.04699707,-0.44754028,3.3310509
-6.2469044,-7.300682,1.9206963,0.083179474,-0.18331528,1.738491
-8.44729,-5.4641323,-5.31201,1.1964226,0.6635666,-2.131691
-9.809505,-4.324711,1.3676052,-2.5522614,-0.011882782,-2.0773506
-9.747219,-2.8331318,1.9781914,-0.5484772,0.47491074,-1.9654655
-12.725586,-3.0244827,3.3284283,-1.5167236,-0.5924034,-1.5414238
-14.375277,2.391138,2.2896233,2.4076653,0.5580902,0.7519531
-12.234781,-5.6581783,1.89674,2.2127342,0.44727325,3.4801865
-7.166527,-6.625414,0.6351414,0.87999344,0.065956116,2.9123497
-6.1537743,-6.026806,1.5664425,-0.028572083,-0.10347366,-0.6264496
-10.214367,-4.547205,1.659872,-1.4730644,-0.17477036,-2.9349136
-10.918083,-1.9566307,1.4394741,-0.9990883,-0.23338318,-2.145443
-10.125729,-2.514513,0.8052311,-1.6679955,-0.514698,-0.6050873
-12.639643,-2.0237083,3.1538467,0.885334,0.55488586,-0.7148361
-14.854103,-4.4010715,3.536848,1.0025597,1.0183144,3.2863235
-8.591028,-6.4529285,1.2002106,1.3125801,-0.036315918,3.4641647
-4.762512,-7.3701553,1.7820492,0.17276764,0.56877136,0.43245316
-7.999607,-6.5128193,0.47942543,-0.75302124,-0.072631836,-2.368145
-9.678045,-3.268837,1.1187592,-0.7870674,-0.66490173,-2.6270294
-10.920479,-2.2321281,-0.44229317,-1.6647911,-0.39533615,-1.4946938
-14.040188,-2.4402485,1.362814,-0.2363205,0.0041389465,-0.8917427
-13.23316,-1.4897823,0.6614933,1.8451691,1.5093803,2.2945786
-9.452856,-5.5024624,1.8751793,1.2177849,0.70508957,3.230915
-7.2357006,-6.9485245,1.9206963,0.32403946,1.0630417,1.2686539
-6.847908,-7.848982,2.0284996,-0.9980202,-0.61697006,-1.4551735
-8.172092,-4.279194,0.7573185,-1.2920189,-1.200695,-1.8920326
-9.6636715,-2.0572472,-0.8085251,-1.5147209,-1.2038994,-1.7364883
-13.731152,-3.1562424,1.3915615,-0.51856995,-0.0054740906,-1.4679909
-12.682764,1.0672531,0.2880745,1.0920143,0.7519531,1.246357
-11.377745,-6.1058617,2.1842155,0.38999557,0.56877136,3.3214378
-6.867073,-6.747591,2.449831,0.88106155,0.88933945,2.2039223
-6.6014576,-9.053085,0.24974442,0.05126953,-0.35060883,-1.1292648
-11.045052,-3.9006844,-1.0313187,-0.39827347,-0.62538147,-2.1167374
-10.188015,-2.0141258,3.1155167,-4.463253,-6.0562134,-1.691761
-11.440031,-4.8155155,5.516836,-2.3594666,0.027503967,-0.09706497
-11.906879,-0.9798126,8.574259,1.6662598,1.4081764,-0.27597427
-10.089794,-6.6230183,5.275177,4.9951744,2.8590775,2.2316933
-8.914139,-4.322315,0.912735,0.6713104,1.74263,2.0378304
-3.3380108,-8.2751045,1.1834412,-2.1164703,-1.029129,0.750885
-11.854176,-5.1745605,1.1642761,-1.1961555,-0.31869888,-3.326912
-8.437708,-2.0213127,0.5512943,-1.4315414,-1.2678528,-1.7737389
-10.2332325,-2.6414814,0.1443367,-1.1524963,0.020160675,-1.293354
-14.777443,-1.0828247,4.116291,-0.4568863,-0.58813095,0.36849976
-9.591803,-5.308716,2.9310532,2.9402542,1.0097694,2.3286247
-9.29714,-3.453001,1.4107265,1.3733292,1.6159248,1.9013786
-7.5782757,-8.69404,3.582365,-0.020160675,1.0001564,1.4199257
-5.7249565,-7.2072525,-1.5460796,-0.22563934,-1.2411499,-1.8280792
-8.703623,-5.5288143,-0.51416206,-2.762146,-1.1750603,-2.4640083
-10.128124,-1.7149715,-1.9602242,-0.3715706,0.34820557,-1.7619896
-13.874889,-1.7748623,3.151451,-0.94688416,-0.112018585,-1.0642433
-13.894054,-2.2728539,0.043720245,1.5777397,0.3002739,2.4905777
-8.732071,-5.389868,0.95825195,2.48003,1.5977669,2.9379845
-7.8295174,-6.826647,1.3244839,0.5211067,0.750885,1.431675
-6.488863,-9.914913,0.84565735,-1.1758614,-0.52324295,-1.0334015
-9.074646,-4.482523,-1.799717,-1.3080406,-0.78199387,-1.8173981
-10.388948,-2.689394,2.1434898,-0.7273865,-0.53913116,-2.622757
-13.34815,-3.589552,0.87919617,-0.723114,-0.76931,-1.1335373
-15.97945,0.6480179,1.7724667,2.149849,0.028572083,-0.25995255
-11.569395,-6.9940414,5.5743313,1.3508987,1.4529037,3.444004
-8.155323,-7.0970535,3.9773445,1.3264656,0.5005455,3.067894
-2.7537766,-8.160114,-0.605196,-0.14259338,-0.2419281,0.19599915
-13.513449,-4.714899,1.9638176,-0.05420685,0.72631836,-2.8943253
-9.225271,-3.2568588,1.5400906,-1.2888145,-1.571331,-2.5365067
-11.981144,-4.820307,-0.12397385,-2.0685387,-0.006542206,-0.7691765
-13.580526,-2.4138966,3.1897812,0.3356552,-0.23872375,-0.3994751
-12.536631,-3.52487,2.6390858,2.525959,1.7479706,2.516079
-9.35224,-6.7188435,1.401144,0.63713074,0.34072876,3.221302
-5.5455837,-7.975651,2.4138966,0.49974442,1.353836,1.2356758
-8.962051,-6.110653,3.3475933,-0.58145523,-0.6829262,-2.5684166
-8.073872,-2.8499012,-1.3783855,-1.0842705,-1.0323334,-2.0656013
-11.32025,-3.4170666,-1.2085953,-0.94688416,-0.30160904,-1.8270111
-15.629988,-5.828268,2.457018,-0.6240463,0.2012062,-1.8663979
-12.926819,-3.8123455,1.8296623,1.0387421,0.38866043,3.109417
-7.781605,-6.690096,0.766901,1.2071037,0.55274963,3.282051
-8.581446,-8.128971,2.0117302,-0.42697906,0.8212471,1.1366081
-4.956558,-7.949299,2.9861526,-0.56970596,-0.4689026,-1.6853523
-7.2165356,-3.7213116,-0.71749115,-1.2408829,-0.65208435,-1.3060379
-8.126575,-2.6582508,1.9949608,-0.3726387,-0.32190323,-2.0784187
-14.324968,-3.2568588,-1.3184948,-0.7870674,-0.21535873,-1.5319443
-13.324194,0.43510628,-0.2530384,1.4009666,0.9203148,1.2442207
-10.209576,-5.244034,0.18985367,0.06515503,0.86170197,3.109417
-6.8718643,-6.9413376,1.4825954,0.3133583,0.71897507,2.3350334
-7.355482,-7.678892,0.60878944,-0.90429306,-1.1452866,-0.6424713
-10.58539,-3.0412521,-0.135952,-0.61136246,-0.3122902,-1.5745354
-8.827896,-2.6366901,0.08684158,-0.89040756,-0.61697006,-1.9324875
-12.565378,-4.006092,0.41713905,-1.2089729,-0.04699707,-1.0419464
-12.4144535,-1.6718502,1.6694546,0.65315247,0.43979645,-0.6754494
-11.799076,-4.592722,2.5384693,1.9176674,1.7075157,2.577896
-7.233305,-5.9070244,1.55686,0.505085,-0.064086914,2.6758957
-6.4649067,-7.228813,1.0085602,0.14499664,0.21081924,0.50374985
-8.301157,-5.157791,0.9869995,-0.70295334,-0.5337906,-2.3979187
-7.863056,-4.310337,0.59202003,-0.64540863,-0.5114937,-2.1710777
-9.720867,-2.761263,1.298132,-1.2227249,-0.25367737,-1.4061737
-12.857346,-2.8355274,1.3029232,-0.51015854,-0.006542206,-0.6925392
-11.289106,-2.2488976,1.1043854,2.4395752,0.9661102,1.3155174
-10.049068,-4.4657536,2.8639755,0.39747238,1.2665176,2.7471924
-9.716076,-7.5782757,1.4730129,1.0280609,0.6805229,2.0218086
-6.7880173,-8.066685,2.5720081,-0.34927368,-0.3345871,0.090522766
-9.002777,-3.414671,-3.8108482,0.1918602,-0.057678223,-1.0567665
-6.5894794,-3.8099499,1.7868404,-1.9236755,-0.56049347,-1.4221954
-10.0227165,-3.8458843,0.055698395,-1.6765404,-0.1269722,-1.4232635
-10.43207,-1.0780334,1.9710045,-1.5188599,-0.9289932,-0.7223129
-14.701082,1.5700359,1.236145,2.1200752,0.79774857,0.09372711
-12.936401,-5.77796,-0.011379242,2.377758,0.44940948,3.4652328
-5.3012295,-5.782751,0.26651382,0.2696991,0.35995483,1.9973755
-9.371405,-8.95726,0.0964241,-0.9490204,0.28852463,-0.67972183
-9.1297455,-4.0420265,-2.3647861,-0.89040756,-0.53806305,-1.6267395
-8.102619,-2.5169086,0.60160255,-2.0089912,-0.63713074,-1.987896
-12.8190155,-3.9054756,3.002922,-0.620842,0.5292511,-1.7886925
-14.638796,0.25064278,-0.23866463,2.3192787,1.0108376,0.15127182
-11.102547,-4.970932,3.3451977,1.1229897,0.46222687,3.2245064
-5.734539,-6.2615776,0.66388893,1.2464905,0.6209755,2.178421
-6.3834553,-6.323864,1.7844448,-0.4301834,0.02122879,-0.5496788
-10.582994,-3.3739452,-0.20782089,-0.802021,-0.964241,-1.6522408
-8.452082,-3.5536175,0.5992069,-0.750885,-1.0877419,-2.1955109
-10.465609,-3.1730118,0.22818375,-1.0224533,-0.20360947,-1.4466286
-13.324194,-3.2209244,0.8097229,-0.048866272,0.11816025,-0.03845215
-11.914066,-4.051609,1.7101803,1.0014915,1.1695862,2.771759
-8.626963,-5.7012997,1.6478939,0.46569824,0.9426117,2.6534653
-5.653387,-5.26799,2.327654,0.49974442,0.66984177,1.0482216
-7.446516,-7.1281967,-0.03773117,-0.61136246,-1.0536957,-1.316719
-11.827824,-3.9629707,1.427496,-0.4930687,-0.6105614,-2.3947144
-10.221254,-3.5033092,0.38360023,0.17904282,-1.4052391,-2.4032593
-9.060272,-3.2856064,0.6111851,-1.1364746,-0.68719864,-0.18011093
-11.279524,-3.3023758,1.1115723,0.028972626,0.16181946,0.46756744
-11.564604,-2.9741745,1.4346828,1.260376,1.640358,0.9789276
-9.792736,-6.3861504,3.8599586,0.69360733,1.1024284,2.7227592
-4.853546,-5.519232,1.7077847,0.55301666,0.068092346,1.8300819
-5.3084164,-7.037163,1.4179134,-0.46329498,-0.2707672,-1.3986969
-12.0098915,-5.823477,3.2017593,-1.2472916,-0.72978973,-3.5250473
-10.812675,-3.0819778,2.2752495,-0.92658997,-1.4617157,-1.6938972
-8.315531,-3.2736282,-0.2841816,-0.46222687,-0.49333572,0.034046173
-10.353014,-3.5224743,2.2968102,-0.5857277,-0.56476593,0.38452148
-11.75835,-1.9829826,2.4857655,0.8395386,0.46222687,1.0236549
-9.41213,-4.329502,0.68784523,1.4286041,1.1950874,1.770401
-6.9605026,-5.9980583,2.0788078,1.0547638,0.394001,2.085762
-5.538397,-6.376568,1.1451111,-0.33325195,-0.16422272,-0.857563
-11.037865,-4.494501,1.2957363,-1.6701317,-0.2196312,-2.0869637
-8.851852,-1.6886196,-0.2769947,-1.4719963,-1.0504913,-1.2549019
-10.441652,-5.0955048,-0.86122894,-1.1163139,0.22884369,-0.9619713
-14.61484,-2.148281,2.5456562,1.2145805,0.7870674,-1.5659904
-12.333002,-5.5911007,2.2177544,1.6864204,2.1442413,3.1765747
-8.969238,-6.500841,1.8392448,0.13751984,0.42591095,3.1840515
-6.0435753,-8.16251,2.457018,0.109882355,0.62511444,1.2558365
-8.375422,-5.176956,0.070072174,0.14286041,-1.3232613,-1.9911003
-8.253244,-4.417841,2.6654377,-2.2443771,-1.065445,-2.9092789
-12.577356,-2.8783493,-1.093605,-1.0193825,-0.17169952,-1.5169907
-13.848537,-3.1418686,2.6534595,0.31442642,0.56770325,-1.0141754
-14.245913,-4.0875435,1.7628841,1.4318085,2.378559,2.9805756
-8.454477,-7.7339916,1.6454983,0.5626297,0.0041389465,3.8445473
-6.0603447,-7.3557816,1.6263332,0.41563034,1.117382,1.0598373
-6.6589527,-7.1473618,3.4002972,-1.2312698,-0.9972191,-2.4980545
-8.241266,-3.4434185,0.062885284,-1.1279297,-1.1208534,-2.1210098
-10.582994,-3.967762,0.22099686,-1.01511,0.02336502,-2.0219421
-15.033775,-1.8679924,0.61837196,0.5679703,0.250206,-0.6125641
-12.211124,-3.829115,2.064434,1.2283325,1.6307449,2.201786
-9.026733,-5.4377804,3.074791,0.5827904,0.03177643,2.8421211
-7.8343086,-7.7866955,2.0812035,0.8352661,1.0097694,2.0036507
-3.6159039,-11.294197,1.851223,-1.6925621,0.7348633,-2.1348953
-9.967617,-5.2703857,-0.0640831,-1.1236572,-0.98119736,-1.9335556
-8.603006,-4.410654,-2.4294682,-0.6507492,-0.09065628,-2.1753502
-13.249929,-5.9309807,0.39557838,-0.86170197,0.48131943,-2.029419
-12.85495,-0.6950321,0.31891823,1.1538315,0.1436615,1.4263344
-10.982765,-5.835455,3.0316696,2.0336914,1.1642456,3.354416
-8.703623,-7.8370037,1.8152885,-0.02122879,0.20868301,2.738781
-3.9054756,-11.696363,0.68065834,-1.0725212,-0.57331085,-0.02670288
-8.521555,-5.164978,-2.443842,-2.0728111,-0.21535873,-0.49547195
-10.853401,-1.9710045,2.3492146,-1.8981743,-0.64460754,-2.7451897
-13.678747,-1.3771877,1.1954193,-0.91176987,-0.38358688,-1.5905571
-13.343359,-1.2241669,3.2712326,1.0398102,-0.3345871,0.06061554
-11.590956,-5.847433,3.8455849,2.682438,1.427269,2.4499893
-7.8989906,-5.0308228,1.5257168,1.4296722,0.8839989,2.414875
-5.1410217,-7.4896374,0.3476658,-1.3570404,-0.027770996,0.60281754
-10.491961,-3.5799694,1.7197628,-0.39079666,-0.95249176,-1.5362167
-8.368235,-2.9334488,-0.10241318,-2.2326279,-1.1208534,-1.7769432
-10.712059,-5.354233,1.5017605,-1.86306,0.7519531,-2.0964432
-15.079292,-1.6766415,6.2160606,-1.16745,-0.5690384,-0.3281784
-13.415228,-2.5839863,1.3460445,1.4756012,1.1225891,3.1211662
-10.312288,-6.15617,-0.3081379,1.9303513,1.7948341,3.5291862
-6.87426,-7.3509903,0.022159576,-0.658226,0.40361404,0.85956573
-7.492033,-4.8658237,0.1203804,-1.9951057,-1.321125,-0.24620056
-7.4513073,-5.8114986,-1.8955421,-3.4310532,-0.035247803,-3.7657738
-10.709663,4.4909077,5.3039246,-0.8371353,-0.8641052,-1.8760109
-13.834164,1.902729,4.8083286,-0.7795906,-0.5859947,0.75942993
-15.251478,-3.8458843,5.9333763,3.00848,0.5484772,2.3350334
-5.576727,-4.2240944,-0.03773117,2.6280975,0.35354614,2.169876
-9.009964,-4.4274235,0.4219303,1.0761261,1.9929695,-0.08424759
-6.7592697,-3.5727825,2.0955772,-2.753601,-1.9782829,-0.8139038
-9.215689,-1.8299618,0.80043983,-1.5658569,-0.88106155,-1.5873528
-9.325888,-0.71419716,1.1786499,-1.1535645,-0.14072418,-1.5499687
-13.053787,-0.7094059,3.010109,-1.4283371,0.28532028,-1.3529015
-14.6411915,4.6011066,3.0196915,2.2052574,1.5849495,-0.8789253
-14.210278,-4.22649,4.4585667,1.0334015,0.27143478,4.179001
-9.077042,-6.4409504,1.2529144,1.4723969,0.8127022,3.304348
-6.744896,-7.4225597,-0.78217316,-1.2663841,-0.28345108,-0.5081558
-12.721094,-4.322315,-1.2753735,-0.6730461,-0.8555603,-2.7622795
-11.440031,-2.5815907,1.1163635,-2.6363754,-0.7468796,-3.2533455
-14.600466,-2.2992058,1.5592556,-1.7276764,0.25447845,-2.4490547
-14.495058,1.4239025,2.847206,1.0121727,0.026435852,0.8265877
-17.138336,-7.073097,2.3420277,2.285099,0.8775902,3.7773895
-7.7384834,-6.343029,2.0740166,0.47103882,-0.57424545,3.1318474
-2.6342945,-6.3645897,-2.1638527,0.024700165,0.3225708,0.29613495
-9.75201,-6.9485245,0.21860123,-1.4805412,0.35461426,-2.9401207
-12.09853,-1.8131924,2.2512932,-0.22457123,-0.20467758,-2.683506
-10.381762,-1.3391571,-0.10241318,-1.2727928,-0.7351303,-1.1346054
-11.854176,0.40156746,-0.028148651,-0.15861511,-0.36022186,-0.11188507
-15.182304,0.37042427,-0.5477009,0.86517334,0.43338776,1.8236732
-11.899693,-6.8553944,1.5640469,2.2127342,0.23952484,3.6367989
-5.100296,-3.776411,-0.05929184,0.37410736,-0.14499664,1.5968323
-4.951767,-5.7611904,-0.31292915,-1.1109734,0.2150917,-1.4733315
-16.551706,-8.535929,2.2800407,-3.7879372,0.9160423,-4.3336105
-9.864605,-1.2888489,2.8208542,-2.0025826,-0.8183098,-0.9491539
-7.484846,-2.4977436,1.1834412,-2.8238297,-0.36128998,-0.8490181
-13.690725,2.6139317,3.1538467,0.700016,0.273571,-0.68933487
-13.183151,-3.6877728,2.8855362,3.0851173,-0.32403946,1.390152
-9.213293,-5.406637,0.6614933,2.9732323,0.16822815,2.4319649
-8.921326,-4.5567875,-0.19584274,0.09065628,1.1471558,1.8929672
-6.1585655,-7.803465,1.0444946,-2.0143318,-0.60949326,0.8148384
-10.204784,-5.1290436,-2.3048954,-0.6986809,0.31736374,-3.0434608
-11.523878,-5.763586,4.9110413,-3.5003471,0.2725029,-3.461094
-14.825356,-2.9358444,0.09402847,-0.5431366,-0.107746124,-2.5172806
-17.705801,1.6107616,1.8799706,2.5152779,0.7731819,0.5443382
-14.686708,-8.12418,1.832058,1.8239403,1.0438156,4.342022
-10.66205,-7.8989906,2.8043842,0.9535599,0.70936203,3.6922073
-2.0620384,-8.461664,-0.29615974,-0.6869316,-1.7067146,0.9799957
-9.642111,-7.101845,-1.0193405,-1.3655853,-0.46783447,-3.4185028
-14.763069,-4.8011417,3.0795822,-0.26088715,0.5303192,-4.2632484
-15.328138,0.27459908,0.6519108,-1.6701317,-0.79374313,-1.9292831
-17.011368,-3.2832108,3.929432,1.4360809,-0.11735916,1.4678574
-11.976353,-8.773096,3.8791237,2.5546646,2.1527863,3.690071
-5.9908714,-6.618227,1.8560143,0.44540405,1.293087,2.6758957
-4.8894806,-6.390642,4.5256443,-0.53993225,-0.024700165,0.18318176
-12.36175,-5.9693108,-3.3463955,0.037384033,-1.0121727,-3.2139587
-10.164059,-6.7068653,1.659872,-2.2677422,-1.1878777,-3.8776588
-16.154331,-2.6678333,-0.33928108,0.84487915,-0.17383575,-2.3330307
-15.725513,-5.2655945,4.767603,1.075058,0.62618256,1.6606522
-10.108959,-11.334923,5.5863094,3.72118,2.9953957,3.7602997
-0.82170105,-8.7898655,2.227337,2.4267578,0.75408936,1.9845581
-11.021095,-3.6398602,-0.86841583,-2.8441238,1.0906792,-1.2123108
-7.1162186,-6.8529987,5.83276,-2.9218292,-1.0824013,0.4356575
-8.468851,-3.3383102,-0.34646797,-1.3271332,-1.6938972,-3.2022095
-17.090424,-2.052456,3.0388565,0.21856308,-0.011882782,-3.1020737
-15.560514,0.77498627,1.3652096,0.8257866,0.26622772,0.82551956
-11.119316,-4.9158325,4.6358433,1.8334198,1.1854744,3.5067558
-5.0907135,-5.49288,0.3093357,-0.07543564,0.19586563,2.2976494
-8.176884,-6.0363884,3.4098797,-2.1154022,-1.0132408,0.85956573
-10.829445,-2.5696125,0.9869995,-0.61883926,0.95329285,-1.654377
-8.844666,-1.3723965,2.136303,-3.1668282,0.16075134,-0.8543587
-12.486322,0.32251167,8.083454,-0.28211594,1.5838814,-1.6117859
-16.29777,1.3137035,8.571863,2.335167,0.06061554,0.30561447
-11.760746,-5.490484,4.702921,4.1675186,-0.556221,3.0018044
-4.7792816,-4.918228,-1.119957,3.2363892,1.1663818,1.608448
-9.060272,-7.5998363,2.0979729,-2.0824242,0.86811066,-0.92365265
-11.595747,-5.828268,-0.7438431,-0.27784348,-0.07583618,-3.0265045
-12.677973,0.10480881,-2.41749,-1.8470383,-0.85128784,-3.368435
-14.815773,2.8723602,-0.705513,-0.16609192,-0.083179474,-1.1675835
-19.259367,1.2298565,-0.7869644,1.7557144,0.4078865,2.2338295
-13.913219,-5.595892,-0.21470833,-0.7082939,0.912838,6.124172
-5.3659115,-4.9661407,-3.0208893,1.7482376,0.7945442,3.6676407
-6.64937,-4.7508335,-2.3552036,-0.8052254,0.8775902,-2.25626
-15.553328,1.8045082,-3.2960873,-0.48345566,0.109615326,-5.2368355
-11.973957,2.9801636,-5.9130135,0.199337,-0.50828934,-2.437439
-16.027363,7.2225246,-3.2817135,0.49654007,0.3225708,-0.9065628
-20.91864,-4.386698,-3.355978,0.21429062,-0.20360947,4.5838165
-9.989178,-5.835455,2.265667,-0.032844543,-1.0633087,3.754959
-2.1267204,-7.4824505,-3.504507,-0.14472961,-0.40281296,0.88306427
